#
# Results on Wed, 23 Feb 2022 07:25:48 GMT
# USER AGENT: Mozilla/5.0 (iPhone; CPU iPhone OS 14_8_1 like Mac OS X) AppleWebKit/605.1.15 (KHTML, like Gecko) Version/14.1.2 Mobile/15E148 Safari/604.1
# Design number was non-random = 0
#
# Columns below this comment are as follows:
# 1. Results reception time.
# 2. MD5 hash of participant's IP address.
# 3. Controller name.
# 4. Order number of item.
# 5. Inner element number.
# 6. Label.
# 7. Latin Square Group.
# 8. Sentence (or sentence MD5).
1645601148,768f35facd7274bec5720cfc2b65d8b7,AcceptabilityJudgment,4,0,practice1,NULL,Ульяна сегодня надела своё любимое нежно-сиреневое платье в цветочек.
# 8. Question (NULL if none)..
# 9. Answer.
# 10. Whether or not answer was correct (NULL if N/A).
# 11. Time taken to answer..
1645601148,768f35facd7274bec5720cfc2b65d8b7,AcceptabilityJudgment,4,0,practice1,NULL,NULL,7,NULL,3570
# 8. Sentence (or sentence MD5).
1645601148,768f35facd7274bec5720cfc2b65d8b7,AcceptabilityJudgment,6,0,practice2,NULL,К нам надвигалось стая громкого угрожающе и кричащих гусей.
# 8. Question (NULL if none)..
# 9. Answer.
# 10. Whether or not answer was correct (NULL if N/A).
# 11. Time taken to answer..
1645601148,768f35facd7274bec5720cfc2b65d8b7,AcceptabilityJudgment,6,0,practice2,NULL,NULL,1,NULL,3887
# 8. Sentence (or sentence MD5).
1645601148,768f35facd7274bec5720cfc2b65d8b7,AcceptabilityJudgment,44,0,Fu-1F.01,19,Как только я вышел из дома%2C пошли сильный снег.
# 8. Question (NULL if none)..
# 9. Answer.
# 10. Whether or not answer was correct (NULL if N/A).
# 11. Time taken to answer..
1645601148,768f35facd7274bec5720cfc2b65d8b7,AcceptabilityJudgment,44,0,Fu-1F.01,19,NULL,1,NULL,3889
# 8. Sentence (or sentence MD5).
1645601148,768f35facd7274bec5720cfc2b65d8b7,AcceptabilityJudgment,8,0,id.sub.a,1,Егор продолжал биться над поделкой%2C но работа всё не хотела спориться.
# 8. Question (NULL if none)..
# 9. Answer.
# 10. Whether or not answer was correct (NULL if N/A).
# 11. Time taken to answer..
1645601148,768f35facd7274bec5720cfc2b65d8b7,AcceptabilityJudgment,8,0,id.sub.a,1,NULL,1,NULL,7122
# 8. Sentence (or sentence MD5).
1645601148,768f35facd7274bec5720cfc2b65d8b7,AcceptabilityJudgment,43,0,Fg-8F.02,18,Пока что папа занят%2C но ты можешь зайти через полчаса%2C он будет очень тебе рад.
# 8. Question (NULL if none)..
# 9. Answer.
# 10. Whether or not answer was correct (NULL if N/A).
# 11. Time taken to answer..
1645601148,768f35facd7274bec5720cfc2b65d8b7,AcceptabilityJudgment,43,0,Fg-8F.02,18,NULL,7,NULL,5373
# 8. Sentence (or sentence MD5).
1645601148,768f35facd7274bec5720cfc2b65d8b7,AcceptabilityJudgment,48,0,Fu-4F.01,21,Вода немало утекло с тех пор%2C что мы с Аней рассорилась.
# 8. Question (NULL if none)..
# 9. Answer.
# 10. Whether or not answer was correct (NULL if N/A).
# 11. Time taken to answer..
1645601148,768f35facd7274bec5720cfc2b65d8b7,AcceptabilityJudgment,48,0,Fu-4F.01,21,NULL,1,NULL,4684
# 8. Sentence (or sentence MD5).
1645601148,768f35facd7274bec5720cfc2b65d8b7,AcceptabilityJudgment,12,0,id.obj.a,3,Контора неумолимо приближалась к банкротству%2C но вовремя принятые меры таки вынудили дело пойти в гору.
# 8. Question (NULL if none)..
# 9. Answer.
# 10. Whether or not answer was correct (NULL if N/A).
# 11. Time taken to answer..
1645601148,768f35facd7274bec5720cfc2b65d8b7,AcceptabilityJudgment,12,0,id.obj.a,3,NULL,6,NULL,7594
# 8. Sentence (or sentence MD5).
1645601148,768f35facd7274bec5720cfc2b65d8b7,AcceptabilityJudgment,36,0,Fg-4F.01,15,Из карточных игр Настя любила только игру в сундучки%2C потому что в ней надо думать%2C а не просто надеяться на везение. 
# 8. Question (NULL if none)..
# 9. Answer.
# 10. Whether or not answer was correct (NULL if N/A).
# 11. Time taken to answer..
1645601148,768f35facd7274bec5720cfc2b65d8b7,AcceptabilityJudgment,36,0,Fg-4F.01,15,NULL,7,NULL,7438
# 8. Sentence (or sentence MD5).
1645601148,768f35facd7274bec5720cfc2b65d8b7,AcceptabilityJudgment,55,0,Fu-8F.02,24,Витя случайно распечатал при принтере его ночную фотографию Сатурна%2C и теперь картридж надо поменяет.
# 8. Question (NULL if none)..
# 9. Answer.
# 10. Whether or not answer was correct (NULL if N/A).
# 11. Time taken to answer..
1645601148,768f35facd7274bec5720cfc2b65d8b7,AcceptabilityJudgment,55,0,Fu-8F.02,24,NULL,1,NULL,4607
# 8. Sentence (or sentence MD5).
1645601148,768f35facd7274bec5720cfc2b65d8b7,AcceptabilityJudgment,19,0,id.amb.d,6,Разрушительная война наконец закончилась%2C и правительство велело мечам перековаться на орала.
# 8. Question (NULL if none)..
# 9. Answer.
# 10. Whether or not answer was correct (NULL if N/A).
# 11. Time taken to answer..
1645601148,768f35facd7274bec5720cfc2b65d8b7,AcceptabilityJudgment,19,0,id.amb.d,6,NULL,1,NULL,4331
# 8. Sentence (or sentence MD5).
1645601148,768f35facd7274bec5720cfc2b65d8b7,AcceptabilityJudgment,32,0,Fg-1F.01,13,Работа с дыханием – неотъемлемая часть подготовки вокалиста. 
# 8. Question (NULL if none)..
# 9. Answer.
# 10. Whether or not answer was correct (NULL if N/A).
# 11. Time taken to answer..
1645601148,768f35facd7274bec5720cfc2b65d8b7,AcceptabilityJudgment,32,0,Fg-1F.01,13,NULL,6,NULL,3956
# 8. Sentence (or sentence MD5).
1645601148,768f35facd7274bec5720cfc2b65d8b7,AcceptabilityJudgment,47,0,Fu-3F.01,20,Поля любила ароматические свечей%2C но больше всего свету на боялась пожаров.
# 8. Question (NULL if none)..
# 9. Answer.
# 10. Whether or not answer was correct (NULL if N/A).
# 11. Time taken to answer..
1645601148,768f35facd7274bec5720cfc2b65d8b7,AcceptabilityJudgment,47,0,Fu-3F.01,20,NULL,1,NULL,2506
# 8. Sentence (or sentence MD5).
1645601148,768f35facd7274bec5720cfc2b65d8b7,AcceptabilityJudgment,15,0,id.obj.d,4,Напряженное молчание заставляло атмосферу сгущаться сильнее и сильнее.
# 8. Question (NULL if none)..
# 9. Answer.
# 10. Whether or not answer was correct (NULL if N/A).
# 11. Time taken to answer..
1645601148,768f35facd7274bec5720cfc2b65d8b7,AcceptabilityJudgment,15,0,id.obj.d,4,NULL,5,NULL,4207
# 8. Sentence (or sentence MD5).
1645601148,768f35facd7274bec5720cfc2b65d8b7,AcceptabilityJudgment,39,0,Fg-6F.01,16,Говорят%2C нельзя смотреть в зеркало в темноте%2C но я сплю напротив зеркала и пока что ничего за собой не замечал.
# 8. Question (NULL if none)..
# 9. Answer.
# 10. Whether or not answer was correct (NULL if N/A).
# 11. Time taken to answer..
1645601148,768f35facd7274bec5720cfc2b65d8b7,AcceptabilityJudgment,39,0,Fg-6F.01,16,NULL,7,NULL,8828
# 8. Sentence (or sentence MD5).
1645601148,768f35facd7274bec5720cfc2b65d8b7,AcceptabilityJudgment,52,0,Fu-7F.01,23,Ежедневные часовая поездки на электричке Никита коротался за чтением книг про континентальной философии.
# 8. Question (NULL if none)..
# 9. Answer.
# 10. Whether or not answer was correct (NULL if N/A).
# 11. Time taken to answer..
1645601148,768f35facd7274bec5720cfc2b65d8b7,AcceptabilityJudgment,52,0,Fu-7F.01,23,NULL,1,NULL,5692
# 8. Sentence (or sentence MD5).
1645601148,768f35facd7274bec5720cfc2b65d8b7,AcceptabilityJudgment,16,0,id.amb.a,5,Дружелюбный настрой Костиных новых знакомых и бутылка хорошего полусухого вина помогли льду растаять быстро и легко.
# 8. Question (NULL if none)..
# 9. Answer.
# 10. Whether or not answer was correct (NULL if N/A).
# 11. Time taken to answer..
1645601148,768f35facd7274bec5720cfc2b65d8b7,AcceptabilityJudgment,16,0,id.amb.a,5,NULL,3,NULL,9252
# 8. Sentence (or sentence MD5).
1645601148,768f35facd7274bec5720cfc2b65d8b7,AcceptabilityJudgment,35,0,Fg-3F.01,14,Я забыла собрать вещи с вечера%2C и из-за этого чуть не опоздала на поезд утром. 
# 8. Question (NULL if none)..
# 9. Answer.
# 10. Whether or not answer was correct (NULL if N/A).
# 11. Time taken to answer..
1645601148,768f35facd7274bec5720cfc2b65d8b7,AcceptabilityJudgment,35,0,Fg-3F.01,14,NULL,7,NULL,5532
# 8. Sentence (or sentence MD5).
1645601148,768f35facd7274bec5720cfc2b65d8b7,AcceptabilityJudgment,51,0,Fu-6F.01,22,Вожатые запрещали нам картами%2C тихонько но каждый вечер мы садили и игрались в покер.
# 8. Question (NULL if none)..
# 9. Answer.
# 10. Whether or not answer was correct (NULL if N/A).
# 11. Time taken to answer..
1645601148,768f35facd7274bec5720cfc2b65d8b7,AcceptabilityJudgment,51,0,Fu-6F.01,22,NULL,1,NULL,3612
# 8. Sentence (or sentence MD5).
1645601148,768f35facd7274bec5720cfc2b65d8b7,AcceptabilityJudgment,11,0,id.sub.d,2,Можешь отпустить Рекса без поводка%2C но если вдруг у него шарики за ролики решат заехать и он растопчет грядки%2C я не виноват.
# 8. Question (NULL if none)..
# 9. Answer.
# 10. Whether or not answer was correct (NULL if N/A).
# 11. Time taken to answer..
1645601148,768f35facd7274bec5720cfc2b65d8b7,AcceptabilityJudgment,11,0,id.sub.d,2,NULL,7,NULL,7074
# 8. Sentence (or sentence MD5).
1645601148,768f35facd7274bec5720cfc2b65d8b7,AcceptabilityJudgment,40,0,Fg-7F.01,17,Мила посмотрела налево%2C дошла до середины дороги%2C затем%2C согласно правилам дорожного движения%2C посмотрела направо%2C не едет ли машина.
# 8. Question (NULL if none)..
# 9. Answer.
# 10. Whether or not answer was correct (NULL if N/A).
# 11. Time taken to answer..
1645601148,768f35facd7274bec5720cfc2b65d8b7,AcceptabilityJudgment,40,0,Fg-7F.01,17,NULL,7,NULL,7727
# 8. Sentence (or sentence MD5).
1645601148,768f35facd7274bec5720cfc2b65d8b7,FlashSentence,56,0,hiddenCompletionCode,NULL,LIR1484737088
#
# Results on Wed, 23 Feb 2022 07:38:39 GMT
# USER AGENT: Mozilla/5.0 (Linux; Android 12; SM-G780F) AppleWebKit/537.36 (KHTML, like Gecko) Chrome/98.0.4758.87 Mobile Safari/537.36
# Design number was non-random = 3
#
# Columns below this comment are as follows:
# 1. Results reception time.
# 2. MD5 hash of participant's IP address.
# 3. Controller name.
# 4. Order number of item.
# 5. Inner element number.
# 6. Label.
# 7. Latin Square Group.
# 8. Sentence (or sentence MD5).
1645601919,c5a9853b2af9700750124b3e03a365e7,AcceptabilityJudgment,4,0,practice1,NULL,Ульяна сегодня надела своё любимое нежно-сиреневое платье в цветочек.
# 8. Question (NULL if none)..
# 9. Answer.
# 10. Whether or not answer was correct (NULL if N/A).
# 11. Time taken to answer..
1645601919,c5a9853b2af9700750124b3e03a365e7,AcceptabilityJudgment,4,0,practice1,NULL,NULL,7,NULL,12899
# 8. Sentence (or sentence MD5).
1645601919,c5a9853b2af9700750124b3e03a365e7,AcceptabilityJudgment,6,0,practice2,NULL,К нам надвигалось стая громкого угрожающе и кричащих гусей.
# 8. Question (NULL if none)..
# 9. Answer.
# 10. Whether or not answer was correct (NULL if N/A).
# 11. Time taken to answer..
1645601919,c5a9853b2af9700750124b3e03a365e7,AcceptabilityJudgment,6,0,practice2,NULL,NULL,1,NULL,12904
# 8. Sentence (or sentence MD5).
1645601919,c5a9853b2af9700750124b3e03a365e7,AcceptabilityJudgment,14,0,id.obj.c,4,Очередной провал заставил почву уйти из-под ног молодого предпринимателя – выхода из ситуации не было никакого.
# 8. Question (NULL if none)..
# 9. Answer.
# 10. Whether or not answer was correct (NULL if N/A).
# 11. Time taken to answer..
1645601919,c5a9853b2af9700750124b3e03a365e7,AcceptabilityJudgment,14,0,id.obj.c,4,NULL,5,NULL,26706
# 8. Sentence (or sentence MD5).
1645601919,c5a9853b2af9700750124b3e03a365e7,AcceptabilityJudgment,53,0,Fu-7F.02,23,Охра – один из самый важных цветов в акварели палитре%2C ним приглушают яркие цвета.
# 8. Question (NULL if none)..
# 9. Answer.
# 10. Whether or not answer was correct (NULL if N/A).
# 11. Time taken to answer..
1645601919,c5a9853b2af9700750124b3e03a365e7,AcceptabilityJudgment,53,0,Fu-7F.02,23,NULL,1,NULL,9359
# 8. Sentence (or sentence MD5).
1645601919,c5a9853b2af9700750124b3e03a365e7,AcceptabilityJudgment,37,0,Fg-4F.02,15,Жаль%2C я не знал про Михаила%2C что с ним будет столько проблем.
# 8. Question (NULL if none)..
# 9. Answer.
# 10. Whether or not answer was correct (NULL if N/A).
# 11. Time taken to answer..
1645601919,c5a9853b2af9700750124b3e03a365e7,AcceptabilityJudgment,37,0,Fg-4F.02,15,NULL,2,NULL,7569
# 8. Sentence (or sentence MD5).
1645601919,c5a9853b2af9700750124b3e03a365e7,AcceptabilityJudgment,13,0,id.obj.b,3,Проект надо заканчивать к среде%2C но пока ничто так и не вынудило лёд тронуться – все будто игнорируют существование дедлайна.
# 8. Question (NULL if none)..
# 9. Answer.
# 10. Whether or not answer was correct (NULL if N/A).
# 11. Time taken to answer..
1645601919,c5a9853b2af9700750124b3e03a365e7,AcceptabilityJudgment,13,0,id.obj.b,3,NULL,4,NULL,12233
# 8. Sentence (or sentence MD5).
1645601919,c5a9853b2af9700750124b3e03a365e7,AcceptabilityJudgment,54,0,Fu-8F.01,24,У Лиды есть родственнике в Варшаве%2C у она которых гостит каждое летом.
# 8. Question (NULL if none)..
# 9. Answer.
# 10. Whether or not answer was correct (NULL if N/A).
# 11. Time taken to answer..
1645601919,c5a9853b2af9700750124b3e03a365e7,AcceptabilityJudgment,54,0,Fu-8F.01,24,NULL,1,NULL,11238
# 8. Sentence (or sentence MD5).
1645601919,c5a9853b2af9700750124b3e03a365e7,AcceptabilityJudgment,34,0,Fg-2F.02,14,Мама тихо читает Лёне книжку про Муми-троллей%2C пока он не уснёт.
# 8. Question (NULL if none)..
# 9. Answer.
# 10. Whether or not answer was correct (NULL if N/A).
# 11. Time taken to answer..
1645601919,c5a9853b2af9700750124b3e03a365e7,AcceptabilityJudgment,34,0,Fg-2F.02,14,NULL,5,NULL,9904
# 8. Sentence (or sentence MD5).
1645601919,c5a9853b2af9700750124b3e03a365e7,AcceptabilityJudgment,10,0,id.sub.c,2,Идти по заброшенному селу было очень страшно -- от каждого шороха сердце было готово уйти в пятки.
# 8. Question (NULL if none)..
# 9. Answer.
# 10. Whether or not answer was correct (NULL if N/A).
# 11. Time taken to answer..
1645601919,c5a9853b2af9700750124b3e03a365e7,AcceptabilityJudgment,10,0,id.sub.c,2,NULL,7,NULL,6300
# 8. Sentence (or sentence MD5).
1645601919,c5a9853b2af9700750124b3e03a365e7,AcceptabilityJudgment,50,0,Fu-5F.02,22,Призом в шахматном турнира был огромный торт 'Птичьим молоком'.
# 8. Question (NULL if none)..
# 9. Answer.
# 10. Whether or not answer was correct (NULL if N/A).
# 11. Time taken to answer..
1645601919,c5a9853b2af9700750124b3e03a365e7,AcceptabilityJudgment,50,0,Fu-5F.02,22,NULL,1,NULL,6329
# 8. Sentence (or sentence MD5).
1645601919,c5a9853b2af9700750124b3e03a365e7,AcceptabilityJudgment,42,0,Fg-8F.01,18,Наташа села под деревом%2C достала планшет и карандаши и начала делать набросок церкви.
# 8. Question (NULL if none)..
# 9. Answer.
# 10. Whether or not answer was correct (NULL if N/A).
# 11. Time taken to answer..
1645601919,c5a9853b2af9700750124b3e03a365e7,AcceptabilityJudgment,42,0,Fg-8F.01,18,NULL,7,NULL,16362
# 8. Sentence (or sentence MD5).
1645601919,c5a9853b2af9700750124b3e03a365e7,AcceptabilityJudgment,18,0,id.amb.c,6,Прошло уже полтора часа с начала контрольной по биологии%2C и время начинало истекать.
# 8. Question (NULL if none)..
# 9. Answer.
# 10. Whether or not answer was correct (NULL if N/A).
# 11. Time taken to answer..
1645601919,c5a9853b2af9700750124b3e03a365e7,AcceptabilityJudgment,18,0,id.amb.c,6,NULL,3,NULL,7157
# 8. Sentence (or sentence MD5).
1645601919,c5a9853b2af9700750124b3e03a365e7,AcceptabilityJudgment,46,0,Fu-2F.02,20,Бабушка готовила блины по-особенного: ставила дрожжевое и добавляла манку тесту.
# 8. Question (NULL if none)..
# 9. Answer.
# 10. Whether or not answer was correct (NULL if N/A).
# 11. Time taken to answer..
1645601919,c5a9853b2af9700750124b3e03a365e7,AcceptabilityJudgment,46,0,Fu-2F.02,20,NULL,1,NULL,6581
# 8. Sentence (or sentence MD5).
1645601919,c5a9853b2af9700750124b3e03a365e7,AcceptabilityJudgment,41,0,Fg-7F.02,17,У нас под окном постоянно проезжают мотоциклисты%2C аж стёкла дребезжат.
# 8. Question (NULL if none)..
# 9. Answer.
# 10. Whether or not answer was correct (NULL if N/A).
# 11. Time taken to answer..
1645601919,c5a9853b2af9700750124b3e03a365e7,AcceptabilityJudgment,41,0,Fg-7F.02,17,NULL,7,NULL,4647
# 8. Sentence (or sentence MD5).
1645601919,c5a9853b2af9700750124b3e03a365e7,AcceptabilityJudgment,9,0,id.sub.b,1,Я третий час сидел над отчетом%2C и голова уже была готова разлететься на кусочки.
# 8. Question (NULL if none)..
# 9. Answer.
# 10. Whether or not answer was correct (NULL if N/A).
# 11. Time taken to answer..
1645601919,c5a9853b2af9700750124b3e03a365e7,AcceptabilityJudgment,9,0,id.sub.b,1,NULL,7,NULL,15180
# 8. Sentence (or sentence MD5).
1645601919,c5a9853b2af9700750124b3e03a365e7,AcceptabilityJudgment,49,0,Fu-4F.02,21,Все любят купаются в моря%2C а больше нравиться собирать мне ракушки и камешки.
# 8. Question (NULL if none)..
# 9. Answer.
# 10. Whether or not answer was correct (NULL if N/A).
# 11. Time taken to answer..
1645601919,c5a9853b2af9700750124b3e03a365e7,AcceptabilityJudgment,49,0,Fu-4F.02,21,NULL,1,NULL,5120
# 8. Sentence (or sentence MD5).
1645601919,c5a9853b2af9700750124b3e03a365e7,AcceptabilityJudgment,33,0,Fg-1F.02,13,Раньше летом и зимой время переводили%2C чтобы экономить электроэнергию%2C затрачиваемую на освещение. 
# 8. Question (NULL if none)..
# 9. Answer.
# 10. Whether or not answer was correct (NULL if N/A).
# 11. Time taken to answer..
1645601919,c5a9853b2af9700750124b3e03a365e7,AcceptabilityJudgment,33,0,Fg-1F.02,13,NULL,7,NULL,6442
# 8. Sentence (or sentence MD5).
1645601919,c5a9853b2af9700750124b3e03a365e7,AcceptabilityJudgment,17,0,id.amb.b,5,Никакие утешения не мешали слезам литься в три ручья – потерялась Анина любимая плюшевая собачка.
# 8. Question (NULL if none)..
# 9. Answer.
# 10. Whether or not answer was correct (NULL if N/A).
# 11. Time taken to answer..
1645601919,c5a9853b2af9700750124b3e03a365e7,AcceptabilityJudgment,17,0,id.amb.b,5,NULL,5,NULL,9486
# 8. Sentence (or sentence MD5).
1645601919,c5a9853b2af9700750124b3e03a365e7,AcceptabilityJudgment,45,0,Fu-1F.02,19,Я никак не могу пойму%2C зачем в обои понатыканных столько булавок.
# 8. Question (NULL if none)..
# 9. Answer.
# 10. Whether or not answer was correct (NULL if N/A).
# 11. Time taken to answer..
1645601919,c5a9853b2af9700750124b3e03a365e7,AcceptabilityJudgment,45,0,Fu-1F.02,19,NULL,1,NULL,7775
# 8. Sentence (or sentence MD5).
1645601919,c5a9853b2af9700750124b3e03a365e7,AcceptabilityJudgment,38,0,Fg-5F.02,16,У Димы сегодня отчетный концерт%2C поэтому он и волнуется.
# 8. Question (NULL if none)..
# 9. Answer.
# 10. Whether or not answer was correct (NULL if N/A).
# 11. Time taken to answer..
1645601919,c5a9853b2af9700750124b3e03a365e7,AcceptabilityJudgment,38,0,Fg-5F.02,16,NULL,7,NULL,3928
# 8. Sentence (or sentence MD5).
1645601919,c5a9853b2af9700750124b3e03a365e7,FlashSentence,56,0,hiddenCompletionCode,NULL,LIR1838745531
#
# Results on Wed, 23 Feb 2022 07:41:12 GMT
# USER AGENT: Mozilla/5.0 (iPhone; CPU iPhone OS 15_0 like Mac OS X) AppleWebKit/605.1.15 (KHTML, like Gecko) Version/15.0 Mobile/15E148 Safari/604.1
# Design number was non-random = 4
#
# Columns below this comment are as follows:
# 1. Results reception time.
# 2. MD5 hash of participant's IP address.
# 3. Controller name.
# 4. Order number of item.
# 5. Inner element number.
# 6. Label.
# 7. Latin Square Group.
# 8. Sentence (or sentence MD5).
1645602072,e0f1670d65d30969ea83204abecf1dd3,AcceptabilityJudgment,4,0,practice1,NULL,Ульяна сегодня надела своё любимое нежно-сиреневое платье в цветочек.
# 8. Question (NULL if none)..
# 9. Answer.
# 10. Whether or not answer was correct (NULL if N/A).
# 11. Time taken to answer..
1645602072,e0f1670d65d30969ea83204abecf1dd3,AcceptabilityJudgment,4,0,practice1,NULL,NULL,7,NULL,9178
# 8. Sentence (or sentence MD5).
1645602072,e0f1670d65d30969ea83204abecf1dd3,AcceptabilityJudgment,6,0,practice2,NULL,К нам надвигалось стая громкого угрожающе и кричащих гусей.
# 8. Question (NULL if none)..
# 9. Answer.
# 10. Whether or not answer was correct (NULL if N/A).
# 11. Time taken to answer..
1645602072,e0f1670d65d30969ea83204abecf1dd3,AcceptabilityJudgment,6,0,practice2,NULL,NULL,3,NULL,11657
# 8. Sentence (or sentence MD5).
1645602072,e0f1670d65d30969ea83204abecf1dd3,AcceptabilityJudgment,43,0,Fg-8F.02,18,Пока что папа занят%2C но ты можешь зайти через полчаса%2C он будет очень тебе рад.
# 8. Question (NULL if none)..
# 9. Answer.
# 10. Whether or not answer was correct (NULL if N/A).
# 11. Time taken to answer..
1645602072,e0f1670d65d30969ea83204abecf1dd3,AcceptabilityJudgment,43,0,Fg-8F.02,18,NULL,5,NULL,11693
# 8. Sentence (or sentence MD5).
1645602072,e0f1670d65d30969ea83204abecf1dd3,AcceptabilityJudgment,8,0,id.sub.a,1,Егор продолжал биться над поделкой%2C но работа всё не хотела спориться.
# 8. Question (NULL if none)..
# 9. Answer.
# 10. Whether or not answer was correct (NULL if N/A).
# 11. Time taken to answer..
1645602072,e0f1670d65d30969ea83204abecf1dd3,AcceptabilityJudgment,8,0,id.sub.a,1,NULL,7,NULL,51914
# 8. Sentence (or sentence MD5).
1645602072,e0f1670d65d30969ea83204abecf1dd3,AcceptabilityJudgment,47,0,Fu-3F.01,20,Поля любила ароматические свечей%2C но больше всего свету на боялась пожаров.
# 8. Question (NULL if none)..
# 9. Answer.
# 10. Whether or not answer was correct (NULL if N/A).
# 11. Time taken to answer..
1645602072,e0f1670d65d30969ea83204abecf1dd3,AcceptabilityJudgment,47,0,Fu-3F.01,20,NULL,1,NULL,11422
# 8. Sentence (or sentence MD5).
1645602072,e0f1670d65d30969ea83204abecf1dd3,AcceptabilityJudgment,36,0,Fg-4F.01,15,Из карточных игр Настя любила только игру в сундучки%2C потому что в ней надо думать%2C а не просто надеяться на везение. 
# 8. Question (NULL if none)..
# 9. Answer.
# 10. Whether or not answer was correct (NULL if N/A).
# 11. Time taken to answer..
1645602072,e0f1670d65d30969ea83204abecf1dd3,AcceptabilityJudgment,36,0,Fg-4F.01,15,NULL,7,NULL,10274
# 8. Sentence (or sentence MD5).
1645602072,e0f1670d65d30969ea83204abecf1dd3,AcceptabilityJudgment,11,0,id.sub.d,2,Можешь отпустить Рекса без поводка%2C но если вдруг у него шарики за ролики решат заехать и он растопчет грядки%2C я не виноват.
# 8. Question (NULL if none)..
# 9. Answer.
# 10. Whether or not answer was correct (NULL if N/A).
# 11. Time taken to answer..
1645602072,e0f1670d65d30969ea83204abecf1dd3,AcceptabilityJudgment,11,0,id.sub.d,2,NULL,5,NULL,29490
# 8. Sentence (or sentence MD5).
1645602072,e0f1670d65d30969ea83204abecf1dd3,AcceptabilityJudgment,52,0,Fu-7F.01,23,Ежедневные часовая поездки на электричке Никита коротался за чтением книг про континентальной философии.
# 8. Question (NULL if none)..
# 9. Answer.
# 10. Whether or not answer was correct (NULL if N/A).
# 11. Time taken to answer..
1645602072,e0f1670d65d30969ea83204abecf1dd3,AcceptabilityJudgment,52,0,Fu-7F.01,23,NULL,1,NULL,32273
# 8. Sentence (or sentence MD5).
1645602072,e0f1670d65d30969ea83204abecf1dd3,AcceptabilityJudgment,35,0,Fg-3F.01,14,Я забыла собрать вещи с вечера%2C и из-за этого чуть не опоздала на поезд утром. 
# 8. Question (NULL if none)..
# 9. Answer.
# 10. Whether or not answer was correct (NULL if N/A).
# 11. Time taken to answer..
1645602072,e0f1670d65d30969ea83204abecf1dd3,AcceptabilityJudgment,35,0,Fg-3F.01,14,NULL,2,NULL,16675
# 8. Sentence (or sentence MD5).
1645602072,e0f1670d65d30969ea83204abecf1dd3,AcceptabilityJudgment,19,0,id.amb.d,6,Разрушительная война наконец закончилась%2C и правительство велело мечам перековаться на орала.
# 8. Question (NULL if none)..
# 9. Answer.
# 10. Whether or not answer was correct (NULL if N/A).
# 11. Time taken to answer..
1645602072,e0f1670d65d30969ea83204abecf1dd3,AcceptabilityJudgment,19,0,id.amb.d,6,NULL,1,NULL,8969
# 8. Sentence (or sentence MD5).
1645602072,e0f1670d65d30969ea83204abecf1dd3,AcceptabilityJudgment,48,0,Fu-4F.01,21,Вода немало утекло с тех пор%2C что мы с Аней рассорилась.
# 8. Question (NULL if none)..
# 9. Answer.
# 10. Whether or not answer was correct (NULL if N/A).
# 11. Time taken to answer..
1645602072,e0f1670d65d30969ea83204abecf1dd3,AcceptabilityJudgment,48,0,Fu-4F.01,21,NULL,1,NULL,30111
# 8. Sentence (or sentence MD5).
1645602072,e0f1670d65d30969ea83204abecf1dd3,AcceptabilityJudgment,40,0,Fg-7F.01,17,Мила посмотрела налево%2C дошла до середины дороги%2C затем%2C согласно правилам дорожного движения%2C посмотрела направо%2C не едет ли машина.
# 8. Question (NULL if none)..
# 9. Answer.
# 10. Whether or not answer was correct (NULL if N/A).
# 11. Time taken to answer..
1645602072,e0f1670d65d30969ea83204abecf1dd3,AcceptabilityJudgment,40,0,Fg-7F.01,17,NULL,7,NULL,24035
# 8. Sentence (or sentence MD5).
1645602072,e0f1670d65d30969ea83204abecf1dd3,AcceptabilityJudgment,15,0,id.obj.d,4,Напряженное молчание заставляло атмосферу сгущаться сильнее и сильнее.
# 8. Question (NULL if none)..
# 9. Answer.
# 10. Whether or not answer was correct (NULL if N/A).
# 11. Time taken to answer..
1645602072,e0f1670d65d30969ea83204abecf1dd3,AcceptabilityJudgment,15,0,id.obj.d,4,NULL,7,NULL,15358
# 8. Sentence (or sentence MD5).
1645602072,e0f1670d65d30969ea83204abecf1dd3,AcceptabilityJudgment,51,0,Fu-6F.01,22,Вожатые запрещали нам картами%2C тихонько но каждый вечер мы садили и игрались в покер.
# 8. Question (NULL if none)..
# 9. Answer.
# 10. Whether or not answer was correct (NULL if N/A).
# 11. Time taken to answer..
1645602072,e0f1670d65d30969ea83204abecf1dd3,AcceptabilityJudgment,51,0,Fu-6F.01,22,NULL,2,NULL,12585
# 8. Sentence (or sentence MD5).
1645602072,e0f1670d65d30969ea83204abecf1dd3,AcceptabilityJudgment,32,0,Fg-1F.01,13,Работа с дыханием – неотъемлемая часть подготовки вокалиста. 
# 8. Question (NULL if none)..
# 9. Answer.
# 10. Whether or not answer was correct (NULL if N/A).
# 11. Time taken to answer..
1645602072,e0f1670d65d30969ea83204abecf1dd3,AcceptabilityJudgment,32,0,Fg-1F.01,13,NULL,7,NULL,3520
# 8. Sentence (or sentence MD5).
1645602072,e0f1670d65d30969ea83204abecf1dd3,AcceptabilityJudgment,16,0,id.amb.a,5,Дружелюбный настрой Костиных новых знакомых и бутылка хорошего полусухого вина помогли льду растаять быстро и легко.
# 8. Question (NULL if none)..
# 9. Answer.
# 10. Whether or not answer was correct (NULL if N/A).
# 11. Time taken to answer..
1645602072,e0f1670d65d30969ea83204abecf1dd3,AcceptabilityJudgment,16,0,id.amb.a,5,NULL,3,NULL,24920
# 8. Sentence (or sentence MD5).
1645602072,e0f1670d65d30969ea83204abecf1dd3,AcceptabilityJudgment,44,0,Fu-1F.01,19,Как только я вышел из дома%2C пошли сильный снег.
# 8. Question (NULL if none)..
# 9. Answer.
# 10. Whether or not answer was correct (NULL if N/A).
# 11. Time taken to answer..
1645602072,e0f1670d65d30969ea83204abecf1dd3,AcceptabilityJudgment,44,0,Fu-1F.01,19,NULL,1,NULL,3549
# 8. Sentence (or sentence MD5).
1645602072,e0f1670d65d30969ea83204abecf1dd3,AcceptabilityJudgment,39,0,Fg-6F.01,16,Говорят%2C нельзя смотреть в зеркало в темноте%2C но я сплю напротив зеркала и пока что ничего за собой не замечал.
# 8. Question (NULL if none)..
# 9. Answer.
# 10. Whether or not answer was correct (NULL if N/A).
# 11. Time taken to answer..
1645602072,e0f1670d65d30969ea83204abecf1dd3,AcceptabilityJudgment,39,0,Fg-6F.01,16,NULL,5,NULL,17186
# 8. Sentence (or sentence MD5).
1645602072,e0f1670d65d30969ea83204abecf1dd3,AcceptabilityJudgment,12,0,id.obj.a,3,Контора неумолимо приближалась к банкротству%2C но вовремя принятые меры таки вынудили дело пойти в гору.
# 8. Question (NULL if none)..
# 9. Answer.
# 10. Whether or not answer was correct (NULL if N/A).
# 11. Time taken to answer..
1645602072,e0f1670d65d30969ea83204abecf1dd3,AcceptabilityJudgment,12,0,id.obj.a,3,NULL,4,NULL,15149
# 8. Sentence (or sentence MD5).
1645602072,e0f1670d65d30969ea83204abecf1dd3,AcceptabilityJudgment,55,0,Fu-8F.02,24,Витя случайно распечатал при принтере его ночную фотографию Сатурна%2C и теперь картридж надо поменяет.
# 8. Question (NULL if none)..
# 9. Answer.
# 10. Whether or not answer was correct (NULL if N/A).
# 11. Time taken to answer..
1645602072,e0f1670d65d30969ea83204abecf1dd3,AcceptabilityJudgment,55,0,Fu-8F.02,24,NULL,1,NULL,9341
# 8. Sentence (or sentence MD5).
1645602072,e0f1670d65d30969ea83204abecf1dd3,FlashSentence,56,0,hiddenCompletionCode,NULL,LIR8509231739
#
# Results on Wed, 23 Feb 2022 07:46:33 GMT
# USER AGENT: Mozilla/5.0 (Linux; Android 10; HRY-LX1T) AppleWebKit/537.36 (KHTML, like Gecko) Chrome/98.0.4758.101 Mobile Safari/537.36
# Design number was non-random = 5
#
# Columns below this comment are as follows:
# 1. Results reception time.
# 2. MD5 hash of participant's IP address.
# 3. Controller name.
# 4. Order number of item.
# 5. Inner element number.
# 6. Label.
# 7. Latin Square Group.
# 8. Sentence (or sentence MD5).
1645602393,d5a2ddaf6760b4b69cece328aa58be87,AcceptabilityJudgment,4,0,practice1,NULL,Ульяна сегодня надела своё любимое нежно-сиреневое платье в цветочек.
# 8. Question (NULL if none)..
# 9. Answer.
# 10. Whether or not answer was correct (NULL if N/A).
# 11. Time taken to answer..
1645602393,d5a2ddaf6760b4b69cece328aa58be87,AcceptabilityJudgment,4,0,practice1,NULL,NULL,7,NULL,4589
# 8. Sentence (or sentence MD5).
1645602393,d5a2ddaf6760b4b69cece328aa58be87,AcceptabilityJudgment,6,0,practice2,NULL,К нам надвигалось стая громкого угрожающе и кричащих гусей.
# 8. Question (NULL if none)..
# 9. Answer.
# 10. Whether or not answer was correct (NULL if N/A).
# 11. Time taken to answer..
1645602393,d5a2ddaf6760b4b69cece328aa58be87,AcceptabilityJudgment,6,0,practice2,NULL,NULL,1,NULL,5400
# 8. Sentence (or sentence MD5).
1645602393,d5a2ddaf6760b4b69cece328aa58be87,AcceptabilityJudgment,17,0,id.amb.b,5,Никакие утешения не мешали слезам литься в три ручья – потерялась Анина любимая плюшевая собачка.
# 8. Question (NULL if none)..
# 9. Answer.
# 10. Whether or not answer was correct (NULL if N/A).
# 11. Time taken to answer..
1645602393,d5a2ddaf6760b4b69cece328aa58be87,AcceptabilityJudgment,17,0,id.amb.b,5,NULL,6,NULL,27539
# 8. Sentence (or sentence MD5).
1645602393,d5a2ddaf6760b4b69cece328aa58be87,AcceptabilityJudgment,41,0,Fg-7F.02,17,У нас под окном постоянно проезжают мотоциклисты%2C аж стёкла дребезжат.
# 8. Question (NULL if none)..
# 9. Answer.
# 10. Whether or not answer was correct (NULL if N/A).
# 11. Time taken to answer..
1645602393,d5a2ddaf6760b4b69cece328aa58be87,AcceptabilityJudgment,41,0,Fg-7F.02,17,NULL,6,NULL,16462
# 8. Sentence (or sentence MD5).
1645602393,d5a2ddaf6760b4b69cece328aa58be87,AcceptabilityJudgment,46,0,Fu-2F.02,20,Бабушка готовила блины по-особенного: ставила дрожжевое и добавляла манку тесту.
# 8. Question (NULL if none)..
# 9. Answer.
# 10. Whether or not answer was correct (NULL if N/A).
# 11. Time taken to answer..
1645602393,d5a2ddaf6760b4b69cece328aa58be87,AcceptabilityJudgment,46,0,Fu-2F.02,20,NULL,1,NULL,3937
# 8. Sentence (or sentence MD5).
1645602393,d5a2ddaf6760b4b69cece328aa58be87,AcceptabilityJudgment,14,0,id.obj.c,4,Очередной провал заставил почву уйти из-под ног молодого предпринимателя – выхода из ситуации не было никакого.
# 8. Question (NULL if none)..
# 9. Answer.
# 10. Whether or not answer was correct (NULL if N/A).
# 11. Time taken to answer..
1645602393,d5a2ddaf6760b4b69cece328aa58be87,AcceptabilityJudgment,14,0,id.obj.c,4,NULL,5,NULL,21288
# 8. Sentence (or sentence MD5).
1645602393,d5a2ddaf6760b4b69cece328aa58be87,AcceptabilityJudgment,34,0,Fg-2F.02,14,Мама тихо читает Лёне книжку про Муми-троллей%2C пока он не уснёт.
# 8. Question (NULL if none)..
# 9. Answer.
# 10. Whether or not answer was correct (NULL if N/A).
# 11. Time taken to answer..
1645602393,d5a2ddaf6760b4b69cece328aa58be87,AcceptabilityJudgment,34,0,Fg-2F.02,14,NULL,7,NULL,6463
# 8. Sentence (or sentence MD5).
1645602393,d5a2ddaf6760b4b69cece328aa58be87,AcceptabilityJudgment,50,0,Fu-5F.02,22,Призом в шахматном турнира был огромный торт 'Птичьим молоком'.
# 8. Question (NULL if none)..
# 9. Answer.
# 10. Whether or not answer was correct (NULL if N/A).
# 11. Time taken to answer..
1645602393,d5a2ddaf6760b4b69cece328aa58be87,AcceptabilityJudgment,50,0,Fu-5F.02,22,NULL,1,NULL,10457
# 8. Sentence (or sentence MD5).
1645602393,d5a2ddaf6760b4b69cece328aa58be87,AcceptabilityJudgment,10,0,id.sub.c,2,Идти по заброшенному селу было очень страшно -- от каждого шороха сердце было готово уйти в пятки.
# 8. Question (NULL if none)..
# 9. Answer.
# 10. Whether or not answer was correct (NULL if N/A).
# 11. Time taken to answer..
1645602393,d5a2ddaf6760b4b69cece328aa58be87,AcceptabilityJudgment,10,0,id.sub.c,2,NULL,7,NULL,10812
# 8. Sentence (or sentence MD5).
1645602393,d5a2ddaf6760b4b69cece328aa58be87,AcceptabilityJudgment,33,0,Fg-1F.02,13,Раньше летом и зимой время переводили%2C чтобы экономить электроэнергию%2C затрачиваемую на освещение. 
# 8. Question (NULL if none)..
# 9. Answer.
# 10. Whether or not answer was correct (NULL if N/A).
# 11. Time taken to answer..
1645602393,d5a2ddaf6760b4b69cece328aa58be87,AcceptabilityJudgment,33,0,Fg-1F.02,13,NULL,4,NULL,23844
# 8. Sentence (or sentence MD5).
1645602393,d5a2ddaf6760b4b69cece328aa58be87,AcceptabilityJudgment,49,0,Fu-4F.02,21,Все любят купаются в моря%2C а больше нравиться собирать мне ракушки и камешки.
# 8. Question (NULL if none)..
# 9. Answer.
# 10. Whether or not answer was correct (NULL if N/A).
# 11. Time taken to answer..
1645602393,d5a2ddaf6760b4b69cece328aa58be87,AcceptabilityJudgment,49,0,Fu-4F.02,21,NULL,1,NULL,4442
# 8. Sentence (or sentence MD5).
1645602393,d5a2ddaf6760b4b69cece328aa58be87,AcceptabilityJudgment,9,0,id.sub.b,1,Я третий час сидел над отчетом%2C и голова уже была готова разлететься на кусочки.
# 8. Question (NULL if none)..
# 9. Answer.
# 10. Whether or not answer was correct (NULL if N/A).
# 11. Time taken to answer..
1645602393,d5a2ddaf6760b4b69cece328aa58be87,AcceptabilityJudgment,9,0,id.sub.b,1,NULL,7,NULL,5035
# 8. Sentence (or sentence MD5).
1645602393,d5a2ddaf6760b4b69cece328aa58be87,AcceptabilityJudgment,42,0,Fg-8F.01,18,Наташа села под деревом%2C достала планшет и карандаши и начала делать набросок церкви.
# 8. Question (NULL if none)..
# 9. Answer.
# 10. Whether or not answer was correct (NULL if N/A).
# 11. Time taken to answer..
1645602393,d5a2ddaf6760b4b69cece328aa58be87,AcceptabilityJudgment,42,0,Fg-8F.01,18,NULL,7,NULL,9632
# 8. Sentence (or sentence MD5).
1645602393,d5a2ddaf6760b4b69cece328aa58be87,AcceptabilityJudgment,53,0,Fu-7F.02,23,Охра – один из самый важных цветов в акварели палитре%2C ним приглушают яркие цвета.
# 8. Question (NULL if none)..
# 9. Answer.
# 10. Whether or not answer was correct (NULL if N/A).
# 11. Time taken to answer..
1645602393,d5a2ddaf6760b4b69cece328aa58be87,AcceptabilityJudgment,53,0,Fu-7F.02,23,NULL,1,NULL,5905
# 8. Sentence (or sentence MD5).
1645602393,d5a2ddaf6760b4b69cece328aa58be87,AcceptabilityJudgment,13,0,id.obj.b,3,Проект надо заканчивать к среде%2C но пока ничто так и не вынудило лёд тронуться – все будто игнорируют существование дедлайна.
# 8. Question (NULL if none)..
# 9. Answer.
# 10. Whether or not answer was correct (NULL if N/A).
# 11. Time taken to answer..
1645602393,d5a2ddaf6760b4b69cece328aa58be87,AcceptabilityJudgment,13,0,id.obj.b,3,NULL,7,NULL,85860
# 8. Sentence (or sentence MD5).
1645602393,d5a2ddaf6760b4b69cece328aa58be87,AcceptabilityJudgment,37,0,Fg-4F.02,15,Жаль%2C я не знал про Михаила%2C что с ним будет столько проблем.
# 8. Question (NULL if none)..
# 9. Answer.
# 10. Whether or not answer was correct (NULL if N/A).
# 11. Time taken to answer..
1645602393,d5a2ddaf6760b4b69cece328aa58be87,AcceptabilityJudgment,37,0,Fg-4F.02,15,NULL,3,NULL,4508
# 8. Sentence (or sentence MD5).
1645602393,d5a2ddaf6760b4b69cece328aa58be87,AcceptabilityJudgment,54,0,Fu-8F.01,24,У Лиды есть родственнике в Варшаве%2C у она которых гостит каждое летом.
# 8. Question (NULL if none)..
# 9. Answer.
# 10. Whether or not answer was correct (NULL if N/A).
# 11. Time taken to answer..
1645602393,d5a2ddaf6760b4b69cece328aa58be87,AcceptabilityJudgment,54,0,Fu-8F.01,24,NULL,1,NULL,5411
# 8. Sentence (or sentence MD5).
1645602393,d5a2ddaf6760b4b69cece328aa58be87,AcceptabilityJudgment,18,0,id.amb.c,6,Прошло уже полтора часа с начала контрольной по биологии%2C и время начинало истекать.
# 8. Question (NULL if none)..
# 9. Answer.
# 10. Whether or not answer was correct (NULL if N/A).
# 11. Time taken to answer..
1645602393,d5a2ddaf6760b4b69cece328aa58be87,AcceptabilityJudgment,18,0,id.amb.c,6,NULL,4,NULL,6754
# 8. Sentence (or sentence MD5).
1645602393,d5a2ddaf6760b4b69cece328aa58be87,AcceptabilityJudgment,38,0,Fg-5F.02,16,У Димы сегодня отчетный концерт%2C поэтому он и волнуется.
# 8. Question (NULL if none)..
# 9. Answer.
# 10. Whether or not answer was correct (NULL if N/A).
# 11. Time taken to answer..
1645602393,d5a2ddaf6760b4b69cece328aa58be87,AcceptabilityJudgment,38,0,Fg-5F.02,16,NULL,7,NULL,3453
# 8. Sentence (or sentence MD5).
1645602393,d5a2ddaf6760b4b69cece328aa58be87,AcceptabilityJudgment,45,0,Fu-1F.02,19,Я никак не могу пойму%2C зачем в обои понатыканных столько булавок.
# 8. Question (NULL if none)..
# 9. Answer.
# 10. Whether or not answer was correct (NULL if N/A).
# 11. Time taken to answer..
1645602393,d5a2ddaf6760b4b69cece328aa58be87,AcceptabilityJudgment,45,0,Fu-1F.02,19,NULL,1,NULL,5899
# 8. Sentence (or sentence MD5).
1645602393,d5a2ddaf6760b4b69cece328aa58be87,FlashSentence,56,0,hiddenCompletionCode,NULL,LIR2288058189
#
# Results on Wed, 23 Feb 2022 07:53:41 GMT
# USER AGENT: Mozilla/5.0 (Linux; Android 9; Redmi Note 8) AppleWebKit/537.36 (KHTML, like Gecko) Chrome/97.0.4692.98 Mobile Safari/537.36
# Design number was non-random = 10
#
# Columns below this comment are as follows:
# 1. Results reception time.
# 2. MD5 hash of participant's IP address.
# 3. Controller name.
# 4. Order number of item.
# 5. Inner element number.
# 6. Label.
# 7. Latin Square Group.
# 8. Sentence (or sentence MD5).
1645602821,c0e14c81beaee894a421c19c11f90b13,AcceptabilityJudgment,4,0,practice1,NULL,Ульяна сегодня надела своё любимое нежно-сиреневое платье в цветочек.
# 8. Question (NULL if none)..
# 9. Answer.
# 10. Whether or not answer was correct (NULL if N/A).
# 11. Time taken to answer..
1645602821,c0e14c81beaee894a421c19c11f90b13,AcceptabilityJudgment,4,0,practice1,NULL,NULL,7,NULL,6438
# 8. Sentence (or sentence MD5).
1645602821,c0e14c81beaee894a421c19c11f90b13,AcceptabilityJudgment,6,0,practice2,NULL,К нам надвигалось стая громкого угрожающе и кричащих гусей.
# 8. Question (NULL if none)..
# 9. Answer.
# 10. Whether or not answer was correct (NULL if N/A).
# 11. Time taken to answer..
1645602821,c0e14c81beaee894a421c19c11f90b13,AcceptabilityJudgment,6,0,practice2,NULL,NULL,1,NULL,3746
# 8. Sentence (or sentence MD5).
1645602821,c0e14c81beaee894a421c19c11f90b13,AcceptabilityJudgment,40,0,Fg-7F.01,17,Мила посмотрела налево%2C дошла до середины дороги%2C затем%2C согласно правилам дорожного движения%2C посмотрела направо%2C не едет ли машина.
# 8. Question (NULL if none)..
# 9. Answer.
# 10. Whether or not answer was correct (NULL if N/A).
# 11. Time taken to answer..
1645602821,c0e14c81beaee894a421c19c11f90b13,AcceptabilityJudgment,40,0,Fg-7F.01,17,NULL,7,NULL,8345
# 8. Sentence (or sentence MD5).
1645602821,c0e14c81beaee894a421c19c11f90b13,AcceptabilityJudgment,19,0,id.amb.d,6,Разрушительная война наконец закончилась%2C и правительство велело мечам перековаться на орала.
# 8. Question (NULL if none)..
# 9. Answer.
# 10. Whether or not answer was correct (NULL if N/A).
# 11. Time taken to answer..
1645602821,c0e14c81beaee894a421c19c11f90b13,AcceptabilityJudgment,19,0,id.amb.d,6,NULL,5,NULL,6053
# 8. Sentence (or sentence MD5).
1645602821,c0e14c81beaee894a421c19c11f90b13,AcceptabilityJudgment,55,0,Fu-8F.02,24,Витя случайно распечатал при принтере его ночную фотографию Сатурна%2C и теперь картридж надо поменяет.
# 8. Question (NULL if none)..
# 9. Answer.
# 10. Whether or not answer was correct (NULL if N/A).
# 11. Time taken to answer..
1645602821,c0e14c81beaee894a421c19c11f90b13,AcceptabilityJudgment,55,0,Fu-8F.02,24,NULL,3,NULL,15201
# 8. Sentence (or sentence MD5).
1645602821,c0e14c81beaee894a421c19c11f90b13,AcceptabilityJudgment,35,0,Fg-3F.01,14,Я забыла собрать вещи с вечера%2C и из-за этого чуть не опоздала на поезд утром. 
# 8. Question (NULL if none)..
# 9. Answer.
# 10. Whether or not answer was correct (NULL if N/A).
# 11. Time taken to answer..
1645602821,c0e14c81beaee894a421c19c11f90b13,AcceptabilityJudgment,35,0,Fg-3F.01,14,NULL,7,NULL,4750
# 8. Sentence (or sentence MD5).
1645602821,c0e14c81beaee894a421c19c11f90b13,AcceptabilityJudgment,11,0,id.sub.d,2,Можешь отпустить Рекса без поводка%2C но если вдруг у него шарики за ролики решат заехать и он растопчет грядки%2C я не виноват.
# 8. Question (NULL if none)..
# 9. Answer.
# 10. Whether or not answer was correct (NULL if N/A).
# 11. Time taken to answer..
1645602821,c0e14c81beaee894a421c19c11f90b13,AcceptabilityJudgment,11,0,id.sub.d,2,NULL,5,NULL,10502
# 8. Sentence (or sentence MD5).
1645602821,c0e14c81beaee894a421c19c11f90b13,AcceptabilityJudgment,48,0,Fu-4F.01,21,Вода немало утекло с тех пор%2C что мы с Аней рассорилась.
# 8. Question (NULL if none)..
# 9. Answer.
# 10. Whether or not answer was correct (NULL if N/A).
# 11. Time taken to answer..
1645602821,c0e14c81beaee894a421c19c11f90b13,AcceptabilityJudgment,48,0,Fu-4F.01,21,NULL,1,NULL,2785
# 8. Sentence (or sentence MD5).
1645602821,c0e14c81beaee894a421c19c11f90b13,AcceptabilityJudgment,43,0,Fg-8F.02,18,Пока что папа занят%2C но ты можешь зайти через полчаса%2C он будет очень тебе рад.
# 8. Question (NULL if none)..
# 9. Answer.
# 10. Whether or not answer was correct (NULL if N/A).
# 11. Time taken to answer..
1645602821,c0e14c81beaee894a421c19c11f90b13,AcceptabilityJudgment,43,0,Fg-8F.02,18,NULL,7,NULL,3824
# 8. Sentence (or sentence MD5).
1645602821,c0e14c81beaee894a421c19c11f90b13,AcceptabilityJudgment,15,0,id.obj.d,4,Напряженное молчание заставляло атмосферу сгущаться сильнее и сильнее.
# 8. Question (NULL if none)..
# 9. Answer.
# 10. Whether or not answer was correct (NULL if N/A).
# 11. Time taken to answer..
1645602821,c0e14c81beaee894a421c19c11f90b13,AcceptabilityJudgment,15,0,id.obj.d,4,NULL,4,NULL,4948
# 8. Sentence (or sentence MD5).
1645602821,c0e14c81beaee894a421c19c11f90b13,AcceptabilityJudgment,47,0,Fu-3F.01,20,Поля любила ароматические свечей%2C но больше всего свету на боялась пожаров.
# 8. Question (NULL if none)..
# 9. Answer.
# 10. Whether or not answer was correct (NULL if N/A).
# 11. Time taken to answer..
1645602821,c0e14c81beaee894a421c19c11f90b13,AcceptabilityJudgment,47,0,Fu-3F.01,20,NULL,1,NULL,5476
# 8. Sentence (or sentence MD5).
1645602821,c0e14c81beaee894a421c19c11f90b13,AcceptabilityJudgment,36,0,Fg-4F.01,15,Из карточных игр Настя любила только игру в сундучки%2C потому что в ней надо думать%2C а не просто надеяться на везение. 
# 8. Question (NULL if none)..
# 9. Answer.
# 10. Whether or not answer was correct (NULL if N/A).
# 11. Time taken to answer..
1645602821,c0e14c81beaee894a421c19c11f90b13,AcceptabilityJudgment,36,0,Fg-4F.01,15,NULL,7,NULL,7066
# 8. Sentence (or sentence MD5).
1645602821,c0e14c81beaee894a421c19c11f90b13,AcceptabilityJudgment,8,0,id.sub.a,1,Егор продолжал биться над поделкой%2C но работа всё не хотела спориться.
# 8. Question (NULL if none)..
# 9. Answer.
# 10. Whether or not answer was correct (NULL if N/A).
# 11. Time taken to answer..
1645602821,c0e14c81beaee894a421c19c11f90b13,AcceptabilityJudgment,8,0,id.sub.a,1,NULL,3,NULL,4199
# 8. Sentence (or sentence MD5).
1645602821,c0e14c81beaee894a421c19c11f90b13,AcceptabilityJudgment,51,0,Fu-6F.01,22,Вожатые запрещали нам картами%2C тихонько но каждый вечер мы садили и игрались в покер.
# 8. Question (NULL if none)..
# 9. Answer.
# 10. Whether or not answer was correct (NULL if N/A).
# 11. Time taken to answer..
1645602821,c0e14c81beaee894a421c19c11f90b13,AcceptabilityJudgment,51,0,Fu-6F.01,22,NULL,1,NULL,5196
# 8. Sentence (or sentence MD5).
1645602821,c0e14c81beaee894a421c19c11f90b13,AcceptabilityJudgment,39,0,Fg-6F.01,16,Говорят%2C нельзя смотреть в зеркало в темноте%2C но я сплю напротив зеркала и пока что ничего за собой не замечал.
# 8. Question (NULL if none)..
# 9. Answer.
# 10. Whether or not answer was correct (NULL if N/A).
# 11. Time taken to answer..
1645602821,c0e14c81beaee894a421c19c11f90b13,AcceptabilityJudgment,39,0,Fg-6F.01,16,NULL,7,NULL,7182
# 8. Sentence (or sentence MD5).
1645602821,c0e14c81beaee894a421c19c11f90b13,AcceptabilityJudgment,16,0,id.amb.a,5,Дружелюбный настрой Костиных новых знакомых и бутылка хорошего полусухого вина помогли льду растаять быстро и легко.
# 8. Question (NULL if none)..
# 9. Answer.
# 10. Whether or not answer was correct (NULL if N/A).
# 11. Time taken to answer..
1645602821,c0e14c81beaee894a421c19c11f90b13,AcceptabilityJudgment,16,0,id.amb.a,5,NULL,3,NULL,7357
# 8. Sentence (or sentence MD5).
1645602821,c0e14c81beaee894a421c19c11f90b13,AcceptabilityJudgment,52,0,Fu-7F.01,23,Ежедневные часовая поездки на электричке Никита коротался за чтением книг про континентальной философии.
# 8. Question (NULL if none)..
# 9. Answer.
# 10. Whether or not answer was correct (NULL if N/A).
# 11. Time taken to answer..
1645602821,c0e14c81beaee894a421c19c11f90b13,AcceptabilityJudgment,52,0,Fu-7F.01,23,NULL,1,NULL,5998
# 8. Sentence (or sentence MD5).
1645602821,c0e14c81beaee894a421c19c11f90b13,AcceptabilityJudgment,32,0,Fg-1F.01,13,Работа с дыханием – неотъемлемая часть подготовки вокалиста. 
# 8. Question (NULL if none)..
# 9. Answer.
# 10. Whether or not answer was correct (NULL if N/A).
# 11. Time taken to answer..
1645602821,c0e14c81beaee894a421c19c11f90b13,AcceptabilityJudgment,32,0,Fg-1F.01,13,NULL,7,NULL,4733
# 8. Sentence (or sentence MD5).
1645602821,c0e14c81beaee894a421c19c11f90b13,AcceptabilityJudgment,12,0,id.obj.a,3,Контора неумолимо приближалась к банкротству%2C но вовремя принятые меры таки вынудили дело пойти в гору.
# 8. Question (NULL if none)..
# 9. Answer.
# 10. Whether or not answer was correct (NULL if N/A).
# 11. Time taken to answer..
1645602821,c0e14c81beaee894a421c19c11f90b13,AcceptabilityJudgment,12,0,id.obj.a,3,NULL,5,NULL,7088
# 8. Sentence (or sentence MD5).
1645602821,c0e14c81beaee894a421c19c11f90b13,AcceptabilityJudgment,44,0,Fu-1F.01,19,Как только я вышел из дома%2C пошли сильный снег.
# 8. Question (NULL if none)..
# 9. Answer.
# 10. Whether or not answer was correct (NULL if N/A).
# 11. Time taken to answer..
1645602821,c0e14c81beaee894a421c19c11f90b13,AcceptabilityJudgment,44,0,Fu-1F.01,19,NULL,2,NULL,3108
# 8. Sentence (or sentence MD5).
1645602821,c0e14c81beaee894a421c19c11f90b13,FlashSentence,56,0,hiddenCompletionCode,NULL,LIR7147382714
#
# Results on Wed, 23 Feb 2022 07:59:06 GMT
# USER AGENT: Mozilla/5.0 (iPhone; CPU iPhone OS 15_1 like Mac OS X) AppleWebKit/605.1.15 (KHTML, like Gecko) CriOS/98.0.4758.97 Mobile/15E148 Safari/604.1
# Design number was non-random = 9
#
# Columns below this comment are as follows:
# 1. Results reception time.
# 2. MD5 hash of participant's IP address.
# 3. Controller name.
# 4. Order number of item.
# 5. Inner element number.
# 6. Label.
# 7. Latin Square Group.
# 8. Sentence (or sentence MD5).
1645603146,99490ba76da4ee8f08aa4e7edfa75a85,AcceptabilityJudgment,4,0,practice1,NULL,Ульяна сегодня надела своё любимое нежно-сиреневое платье в цветочек.
# 8. Question (NULL if none)..
# 9. Answer.
# 10. Whether or not answer was correct (NULL if N/A).
# 11. Time taken to answer..
1645603146,99490ba76da4ee8f08aa4e7edfa75a85,AcceptabilityJudgment,4,0,practice1,NULL,NULL,7,NULL,17439
# 8. Sentence (or sentence MD5).
1645603146,99490ba76da4ee8f08aa4e7edfa75a85,AcceptabilityJudgment,6,0,practice2,NULL,К нам надвигалось стая громкого угрожающе и кричащих гусей.
# 8. Question (NULL if none)..
# 9. Answer.
# 10. Whether or not answer was correct (NULL if N/A).
# 11. Time taken to answer..
1645603146,99490ba76da4ee8f08aa4e7edfa75a85,AcceptabilityJudgment,6,0,practice2,NULL,NULL,1,NULL,21452
# 8. Sentence (or sentence MD5).
1645603146,99490ba76da4ee8f08aa4e7edfa75a85,AcceptabilityJudgment,41,0,Fg-7F.02,17,У нас под окном постоянно проезжают мотоциклисты%2C аж стёкла дребезжат.
# 8. Question (NULL if none)..
# 9. Answer.
# 10. Whether or not answer was correct (NULL if N/A).
# 11. Time taken to answer..
1645603146,99490ba76da4ee8f08aa4e7edfa75a85,AcceptabilityJudgment,41,0,Fg-7F.02,17,NULL,1,NULL,15006
# 8. Sentence (or sentence MD5).
1645603146,99490ba76da4ee8f08aa4e7edfa75a85,AcceptabilityJudgment,54,0,Fu-8F.01,24,У Лиды есть родственнике в Варшаве%2C у она которых гостит каждое летом.
# 8. Question (NULL if none)..
# 9. Answer.
# 10. Whether or not answer was correct (NULL if N/A).
# 11. Time taken to answer..
1645603146,99490ba76da4ee8f08aa4e7edfa75a85,AcceptabilityJudgment,54,0,Fu-8F.01,24,NULL,1,NULL,12071
# 8. Sentence (or sentence MD5).
1645603146,99490ba76da4ee8f08aa4e7edfa75a85,AcceptabilityJudgment,14,0,id.obj.c,4,Очередной провал заставил почву уйти из-под ног молодого предпринимателя – выхода из ситуации не было никакого.
# 8. Question (NULL if none)..
# 9. Answer.
# 10. Whether or not answer was correct (NULL if N/A).
# 11. Time taken to answer..
1645603146,99490ba76da4ee8f08aa4e7edfa75a85,AcceptabilityJudgment,14,0,id.obj.c,4,NULL,3,NULL,35359
# 8. Sentence (or sentence MD5).
1645603146,99490ba76da4ee8f08aa4e7edfa75a85,AcceptabilityJudgment,42,0,Fg-8F.01,18,Наташа села под деревом%2C достала планшет и карандаши и начала делать набросок церкви.
# 8. Question (NULL if none)..
# 9. Answer.
# 10. Whether or not answer was correct (NULL if N/A).
# 11. Time taken to answer..
1645603146,99490ba76da4ee8f08aa4e7edfa75a85,AcceptabilityJudgment,42,0,Fg-8F.01,18,NULL,6,NULL,23377
# 8. Sentence (or sentence MD5).
1645603146,99490ba76da4ee8f08aa4e7edfa75a85,AcceptabilityJudgment,50,0,Fu-5F.02,22,Призом в шахматном турнира был огромный торт 'Птичьим молоком'.
# 8. Question (NULL if none)..
# 9. Answer.
# 10. Whether or not answer was correct (NULL if N/A).
# 11. Time taken to answer..
1645603146,99490ba76da4ee8f08aa4e7edfa75a85,AcceptabilityJudgment,50,0,Fu-5F.02,22,NULL,1,NULL,15456
# 8. Sentence (or sentence MD5).
1645603146,99490ba76da4ee8f08aa4e7edfa75a85,AcceptabilityJudgment,10,0,id.sub.c,2,Идти по заброшенному селу было очень страшно -- от каждого шороха сердце было готово уйти в пятки.
# 8. Question (NULL if none)..
# 9. Answer.
# 10. Whether or not answer was correct (NULL if N/A).
# 11. Time taken to answer..
1645603146,99490ba76da4ee8f08aa4e7edfa75a85,AcceptabilityJudgment,10,0,id.sub.c,2,NULL,6,NULL,16245
# 8. Sentence (or sentence MD5).
1645603146,99490ba76da4ee8f08aa4e7edfa75a85,AcceptabilityJudgment,37,0,Fg-4F.02,15,Жаль%2C я не знал про Михаила%2C что с ним будет столько проблем.
# 8. Question (NULL if none)..
# 9. Answer.
# 10. Whether or not answer was correct (NULL if N/A).
# 11. Time taken to answer..
1645603146,99490ba76da4ee8f08aa4e7edfa75a85,AcceptabilityJudgment,37,0,Fg-4F.02,15,NULL,3,NULL,25795
# 8. Sentence (or sentence MD5).
1645603146,99490ba76da4ee8f08aa4e7edfa75a85,AcceptabilityJudgment,45,0,Fu-1F.02,19,Я никак не могу пойму%2C зачем в обои понатыканных столько булавок.
# 8. Question (NULL if none)..
# 9. Answer.
# 10. Whether or not answer was correct (NULL if N/A).
# 11. Time taken to answer..
1645603146,99490ba76da4ee8f08aa4e7edfa75a85,AcceptabilityJudgment,45,0,Fu-1F.02,19,NULL,1,NULL,11959
# 8. Sentence (or sentence MD5).
1645603146,99490ba76da4ee8f08aa4e7edfa75a85,AcceptabilityJudgment,9,0,id.sub.b,1,Я третий час сидел над отчетом%2C и голова уже была готова разлететься на кусочки.
# 8. Question (NULL if none)..
# 9. Answer.
# 10. Whether or not answer was correct (NULL if N/A).
# 11. Time taken to answer..
1645603146,99490ba76da4ee8f08aa4e7edfa75a85,AcceptabilityJudgment,9,0,id.sub.b,1,NULL,3,NULL,21008
# 8. Sentence (or sentence MD5).
1645603146,99490ba76da4ee8f08aa4e7edfa75a85,AcceptabilityJudgment,34,0,Fg-2F.02,14,Мама тихо читает Лёне книжку про Муми-троллей%2C пока он не уснёт.
# 8. Question (NULL if none)..
# 9. Answer.
# 10. Whether or not answer was correct (NULL if N/A).
# 11. Time taken to answer..
1645603146,99490ba76da4ee8f08aa4e7edfa75a85,AcceptabilityJudgment,34,0,Fg-2F.02,14,NULL,5,NULL,25298
# 8. Sentence (or sentence MD5).
1645603146,99490ba76da4ee8f08aa4e7edfa75a85,AcceptabilityJudgment,49,0,Fu-4F.02,21,Все любят купаются в моря%2C а больше нравиться собирать мне ракушки и камешки.
# 8. Question (NULL if none)..
# 9. Answer.
# 10. Whether or not answer was correct (NULL if N/A).
# 11. Time taken to answer..
1645603146,99490ba76da4ee8f08aa4e7edfa75a85,AcceptabilityJudgment,49,0,Fu-4F.02,21,NULL,4,NULL,13373
# 8. Sentence (or sentence MD5).
1645603146,99490ba76da4ee8f08aa4e7edfa75a85,AcceptabilityJudgment,18,0,id.amb.c,6,Прошло уже полтора часа с начала контрольной по биологии%2C и время начинало истекать.
# 8. Question (NULL if none)..
# 9. Answer.
# 10. Whether or not answer was correct (NULL if N/A).
# 11. Time taken to answer..
1645603146,99490ba76da4ee8f08aa4e7edfa75a85,AcceptabilityJudgment,18,0,id.amb.c,6,NULL,5,NULL,26963
# 8. Sentence (or sentence MD5).
1645603146,99490ba76da4ee8f08aa4e7edfa75a85,AcceptabilityJudgment,33,0,Fg-1F.02,13,Раньше летом и зимой время переводили%2C чтобы экономить электроэнергию%2C затрачиваемую на освещение. 
# 8. Question (NULL if none)..
# 9. Answer.
# 10. Whether or not answer was correct (NULL if N/A).
# 11. Time taken to answer..
1645603146,99490ba76da4ee8f08aa4e7edfa75a85,AcceptabilityJudgment,33,0,Fg-1F.02,13,NULL,6,NULL,17624
# 8. Sentence (or sentence MD5).
1645603146,99490ba76da4ee8f08aa4e7edfa75a85,AcceptabilityJudgment,53,0,Fu-7F.02,23,Охра – один из самый важных цветов в акварели палитре%2C ним приглушают яркие цвета.
# 8. Question (NULL if none)..
# 9. Answer.
# 10. Whether or not answer was correct (NULL if N/A).
# 11. Time taken to answer..
1645603146,99490ba76da4ee8f08aa4e7edfa75a85,AcceptabilityJudgment,53,0,Fu-7F.02,23,NULL,3,NULL,15475
# 8. Sentence (or sentence MD5).
1645603146,99490ba76da4ee8f08aa4e7edfa75a85,AcceptabilityJudgment,13,0,id.obj.b,3,Проект надо заканчивать к среде%2C но пока ничто так и не вынудило лёд тронуться – все будто игнорируют существование дедлайна.
# 8. Question (NULL if none)..
# 9. Answer.
# 10. Whether or not answer was correct (NULL if N/A).
# 11. Time taken to answer..
1645603146,99490ba76da4ee8f08aa4e7edfa75a85,AcceptabilityJudgment,13,0,id.obj.b,3,NULL,6,NULL,32317
# 8. Sentence (or sentence MD5).
1645603146,99490ba76da4ee8f08aa4e7edfa75a85,AcceptabilityJudgment,38,0,Fg-5F.02,16,У Димы сегодня отчетный концерт%2C поэтому он и волнуется.
# 8. Question (NULL if none)..
# 9. Answer.
# 10. Whether or not answer was correct (NULL if N/A).
# 11. Time taken to answer..
1645603146,99490ba76da4ee8f08aa4e7edfa75a85,AcceptabilityJudgment,38,0,Fg-5F.02,16,NULL,6,NULL,12394
# 8. Sentence (or sentence MD5).
1645603146,99490ba76da4ee8f08aa4e7edfa75a85,AcceptabilityJudgment,46,0,Fu-2F.02,20,Бабушка готовила блины по-особенного: ставила дрожжевое и добавляла манку тесту.
# 8. Question (NULL if none)..
# 9. Answer.
# 10. Whether or not answer was correct (NULL if N/A).
# 11. Time taken to answer..
1645603146,99490ba76da4ee8f08aa4e7edfa75a85,AcceptabilityJudgment,46,0,Fu-2F.02,20,NULL,1,NULL,21127
# 8. Sentence (or sentence MD5).
1645603146,99490ba76da4ee8f08aa4e7edfa75a85,AcceptabilityJudgment,17,0,id.amb.b,5,Никакие утешения не мешали слезам литься в три ручья – потерялась Анина любимая плюшевая собачка.
# 8. Question (NULL if none)..
# 9. Answer.
# 10. Whether or not answer was correct (NULL if N/A).
# 11. Time taken to answer..
1645603146,99490ba76da4ee8f08aa4e7edfa75a85,AcceptabilityJudgment,17,0,id.amb.b,5,NULL,7,NULL,41224
# 8. Sentence (or sentence MD5).
1645603146,99490ba76da4ee8f08aa4e7edfa75a85,FlashSentence,56,0,hiddenCompletionCode,NULL,LIR3247452874
#
# Results on Wed, 23 Feb 2022 08:01:33 GMT
# USER AGENT: Mozilla/5.0 (iPhone; CPU iPhone OS 15_3 like Mac OS X) AppleWebKit/605.1.15 (KHTML, like Gecko) Version/15.3 Mobile/15E148 Safari/604.1
# Design number was non-random = 11
#
# Columns below this comment are as follows:
# 1. Results reception time.
# 2. MD5 hash of participant's IP address.
# 3. Controller name.
# 4. Order number of item.
# 5. Inner element number.
# 6. Label.
# 7. Latin Square Group.
# 8. Sentence (or sentence MD5).
1645603293,9eaef0cdd08adca1f73ebd28f8dbb78c,AcceptabilityJudgment,4,0,practice1,NULL,Ульяна сегодня надела своё любимое нежно-сиреневое платье в цветочек.
# 8. Question (NULL if none)..
# 9. Answer.
# 10. Whether or not answer was correct (NULL if N/A).
# 11. Time taken to answer..
1645603293,9eaef0cdd08adca1f73ebd28f8dbb78c,AcceptabilityJudgment,4,0,practice1,NULL,NULL,3,NULL,8044
# 8. Sentence (or sentence MD5).
1645603293,9eaef0cdd08adca1f73ebd28f8dbb78c,AcceptabilityJudgment,6,0,practice2,NULL,К нам надвигалось стая громкого угрожающе и кричащих гусей.
# 8. Question (NULL if none)..
# 9. Answer.
# 10. Whether or not answer was correct (NULL if N/A).
# 11. Time taken to answer..
1645603293,9eaef0cdd08adca1f73ebd28f8dbb78c,AcceptabilityJudgment,6,0,practice2,NULL,NULL,3,NULL,7655
# 8. Sentence (or sentence MD5).
1645603293,9eaef0cdd08adca1f73ebd28f8dbb78c,AcceptabilityJudgment,53,0,Fu-7F.02,23,Охра – один из самый важных цветов в акварели палитре%2C ним приглушают яркие цвета.
# 8. Question (NULL if none)..
# 9. Answer.
# 10. Whether or not answer was correct (NULL if N/A).
# 11. Time taken to answer..
1645603293,9eaef0cdd08adca1f73ebd28f8dbb78c,AcceptabilityJudgment,53,0,Fu-7F.02,23,NULL,2,NULL,20756
# 8. Sentence (or sentence MD5).
1645603293,9eaef0cdd08adca1f73ebd28f8dbb78c,AcceptabilityJudgment,33,0,Fg-1F.02,13,Раньше летом и зимой время переводили%2C чтобы экономить электроэнергию%2C затрачиваемую на освещение. 
# 8. Question (NULL if none)..
# 9. Answer.
# 10. Whether or not answer was correct (NULL if N/A).
# 11. Time taken to answer..
1645603293,9eaef0cdd08adca1f73ebd28f8dbb78c,AcceptabilityJudgment,33,0,Fg-1F.02,13,NULL,6,NULL,18714
# 8. Sentence (or sentence MD5).
1645603293,9eaef0cdd08adca1f73ebd28f8dbb78c,AcceptabilityJudgment,10,0,id.sub.c,2,Идти по заброшенному селу было очень страшно -- от каждого шороха сердце было готово уйти в пятки.
# 8. Question (NULL if none)..
# 9. Answer.
# 10. Whether or not answer was correct (NULL if N/A).
# 11. Time taken to answer..
1645603293,9eaef0cdd08adca1f73ebd28f8dbb78c,AcceptabilityJudgment,10,0,id.sub.c,2,NULL,6,NULL,5721
# 8. Sentence (or sentence MD5).
1645603293,9eaef0cdd08adca1f73ebd28f8dbb78c,AcceptabilityJudgment,45,0,Fu-1F.02,19,Я никак не могу пойму%2C зачем в обои понатыканных столько булавок.
# 8. Question (NULL if none)..
# 9. Answer.
# 10. Whether or not answer was correct (NULL if N/A).
# 11. Time taken to answer..
1645603293,9eaef0cdd08adca1f73ebd28f8dbb78c,AcceptabilityJudgment,45,0,Fu-1F.02,19,NULL,1,NULL,5437
# 8. Sentence (or sentence MD5).
1645603293,9eaef0cdd08adca1f73ebd28f8dbb78c,AcceptabilityJudgment,42,0,Fg-8F.01,18,Наташа села под деревом%2C достала планшет и карандаши и начала делать набросок церкви.
# 8. Question (NULL if none)..
# 9. Answer.
# 10. Whether or not answer was correct (NULL if N/A).
# 11. Time taken to answer..
1645603293,9eaef0cdd08adca1f73ebd28f8dbb78c,AcceptabilityJudgment,42,0,Fg-8F.01,18,NULL,7,NULL,6814
# 8. Sentence (or sentence MD5).
1645603293,9eaef0cdd08adca1f73ebd28f8dbb78c,AcceptabilityJudgment,18,0,id.amb.c,6,Прошло уже полтора часа с начала контрольной по биологии%2C и время начинало истекать.
# 8. Question (NULL if none)..
# 9. Answer.
# 10. Whether or not answer was correct (NULL if N/A).
# 11. Time taken to answer..
1645603293,9eaef0cdd08adca1f73ebd28f8dbb78c,AcceptabilityJudgment,18,0,id.amb.c,6,NULL,6,NULL,12343
# 8. Sentence (or sentence MD5).
1645603293,9eaef0cdd08adca1f73ebd28f8dbb78c,AcceptabilityJudgment,50,0,Fu-5F.02,22,Призом в шахматном турнира был огромный торт 'Птичьим молоком'.
# 8. Question (NULL if none)..
# 9. Answer.
# 10. Whether or not answer was correct (NULL if N/A).
# 11. Time taken to answer..
1645603293,9eaef0cdd08adca1f73ebd28f8dbb78c,AcceptabilityJudgment,50,0,Fu-5F.02,22,NULL,1,NULL,4833
# 8. Sentence (or sentence MD5).
1645603293,9eaef0cdd08adca1f73ebd28f8dbb78c,AcceptabilityJudgment,34,0,Fg-2F.02,14,Мама тихо читает Лёне книжку про Муми-троллей%2C пока он не уснёт.
# 8. Question (NULL if none)..
# 9. Answer.
# 10. Whether or not answer was correct (NULL if N/A).
# 11. Time taken to answer..
1645603293,9eaef0cdd08adca1f73ebd28f8dbb78c,AcceptabilityJudgment,34,0,Fg-2F.02,14,NULL,7,NULL,7031
# 8. Sentence (or sentence MD5).
1645603293,9eaef0cdd08adca1f73ebd28f8dbb78c,AcceptabilityJudgment,13,0,id.obj.b,3,Проект надо заканчивать к среде%2C но пока ничто так и не вынудило лёд тронуться – все будто игнорируют существование дедлайна.
# 8. Question (NULL if none)..
# 9. Answer.
# 10. Whether or not answer was correct (NULL if N/A).
# 11. Time taken to answer..
1645603293,9eaef0cdd08adca1f73ebd28f8dbb78c,AcceptabilityJudgment,13,0,id.obj.b,3,NULL,5,NULL,11470
# 8. Sentence (or sentence MD5).
1645603293,9eaef0cdd08adca1f73ebd28f8dbb78c,AcceptabilityJudgment,49,0,Fu-4F.02,21,Все любят купаются в моря%2C а больше нравиться собирать мне ракушки и камешки.
# 8. Question (NULL if none)..
# 9. Answer.
# 10. Whether or not answer was correct (NULL if N/A).
# 11. Time taken to answer..
1645603293,9eaef0cdd08adca1f73ebd28f8dbb78c,AcceptabilityJudgment,49,0,Fu-4F.02,21,NULL,2,NULL,5899
# 8. Sentence (or sentence MD5).
1645603293,9eaef0cdd08adca1f73ebd28f8dbb78c,AcceptabilityJudgment,37,0,Fg-4F.02,15,Жаль%2C я не знал про Михаила%2C что с ним будет столько проблем.
# 8. Question (NULL if none)..
# 9. Answer.
# 10. Whether or not answer was correct (NULL if N/A).
# 11. Time taken to answer..
1645603293,9eaef0cdd08adca1f73ebd28f8dbb78c,AcceptabilityJudgment,37,0,Fg-4F.02,15,NULL,6,NULL,7902
# 8. Sentence (or sentence MD5).
1645603293,9eaef0cdd08adca1f73ebd28f8dbb78c,AcceptabilityJudgment,17,0,id.amb.b,5,Никакие утешения не мешали слезам литься в три ручья – потерялась Анина любимая плюшевая собачка.
# 8. Question (NULL if none)..
# 9. Answer.
# 10. Whether or not answer was correct (NULL if N/A).
# 11. Time taken to answer..
1645603293,9eaef0cdd08adca1f73ebd28f8dbb78c,AcceptabilityJudgment,17,0,id.amb.b,5,NULL,1,NULL,10502
# 8. Sentence (or sentence MD5).
1645603293,9eaef0cdd08adca1f73ebd28f8dbb78c,AcceptabilityJudgment,46,0,Fu-2F.02,20,Бабушка готовила блины по-особенного: ставила дрожжевое и добавляла манку тесту.
# 8. Question (NULL if none)..
# 9. Answer.
# 10. Whether or not answer was correct (NULL if N/A).
# 11. Time taken to answer..
1645603293,9eaef0cdd08adca1f73ebd28f8dbb78c,AcceptabilityJudgment,46,0,Fu-2F.02,20,NULL,1,NULL,3578
# 8. Sentence (or sentence MD5).
1645603293,9eaef0cdd08adca1f73ebd28f8dbb78c,AcceptabilityJudgment,41,0,Fg-7F.02,17,У нас под окном постоянно проезжают мотоциклисты%2C аж стёкла дребезжат.
# 8. Question (NULL if none)..
# 9. Answer.
# 10. Whether or not answer was correct (NULL if N/A).
# 11. Time taken to answer..
1645603293,9eaef0cdd08adca1f73ebd28f8dbb78c,AcceptabilityJudgment,41,0,Fg-7F.02,17,NULL,7,NULL,4891
# 8. Sentence (or sentence MD5).
1645603293,9eaef0cdd08adca1f73ebd28f8dbb78c,AcceptabilityJudgment,14,0,id.obj.c,4,Очередной провал заставил почву уйти из-под ног молодого предпринимателя – выхода из ситуации не было никакого.
# 8. Question (NULL if none)..
# 9. Answer.
# 10. Whether or not answer was correct (NULL if N/A).
# 11. Time taken to answer..
1645603293,9eaef0cdd08adca1f73ebd28f8dbb78c,AcceptabilityJudgment,14,0,id.obj.c,4,NULL,6,NULL,7813
# 8. Sentence (or sentence MD5).
1645603293,9eaef0cdd08adca1f73ebd28f8dbb78c,AcceptabilityJudgment,54,0,Fu-8F.01,24,У Лиды есть родственнике в Варшаве%2C у она которых гостит каждое летом.
# 8. Question (NULL if none)..
# 9. Answer.
# 10. Whether or not answer was correct (NULL if N/A).
# 11. Time taken to answer..
1645603293,9eaef0cdd08adca1f73ebd28f8dbb78c,AcceptabilityJudgment,54,0,Fu-8F.01,24,NULL,1,NULL,3667
# 8. Sentence (or sentence MD5).
1645603293,9eaef0cdd08adca1f73ebd28f8dbb78c,AcceptabilityJudgment,38,0,Fg-5F.02,16,У Димы сегодня отчетный концерт%2C поэтому он и волнуется.
# 8. Question (NULL if none)..
# 9. Answer.
# 10. Whether or not answer was correct (NULL if N/A).
# 11. Time taken to answer..
1645603293,9eaef0cdd08adca1f73ebd28f8dbb78c,AcceptabilityJudgment,38,0,Fg-5F.02,16,NULL,7,NULL,2807
# 8. Sentence (or sentence MD5).
1645603293,9eaef0cdd08adca1f73ebd28f8dbb78c,AcceptabilityJudgment,9,0,id.sub.b,1,Я третий час сидел над отчетом%2C и голова уже была готова разлететься на кусочки.
# 8. Question (NULL if none)..
# 9. Answer.
# 10. Whether or not answer was correct (NULL if N/A).
# 11. Time taken to answer..
1645603293,9eaef0cdd08adca1f73ebd28f8dbb78c,AcceptabilityJudgment,9,0,id.sub.b,1,NULL,7,NULL,4416
# 8. Sentence (or sentence MD5).
1645603293,9eaef0cdd08adca1f73ebd28f8dbb78c,FlashSentence,56,0,hiddenCompletionCode,NULL,LIR5683353452
#
# Results on Wed, 23 Feb 2022 08:20:50 GMT
# USER AGENT: Mozilla/5.0 (Windows NT 10.0; Win64; x64) AppleWebKit/537.36 (KHTML, like Gecko) Chrome/98.0.4758.102 Safari/537.36
# Design number was non-random = 8
#
# Columns below this comment are as follows:
# 1. Results reception time.
# 2. MD5 hash of participant's IP address.
# 3. Controller name.
# 4. Order number of item.
# 5. Inner element number.
# 6. Label.
# 7. Latin Square Group.
# 8. Sentence (or sentence MD5).
1645604450,05f475a6456c929e7b81d1621aaed515,AcceptabilityJudgment,4,0,practice1,NULL,Ульяна сегодня надела своё любимое нежно-сиреневое платье в цветочек.
# 8. Question (NULL if none)..
# 9. Answer.
# 10. Whether or not answer was correct (NULL if N/A).
# 11. Time taken to answer..
1645604450,05f475a6456c929e7b81d1621aaed515,AcceptabilityJudgment,4,0,practice1,NULL,NULL,7,NULL,9268
# 8. Sentence (or sentence MD5).
1645604450,05f475a6456c929e7b81d1621aaed515,AcceptabilityJudgment,6,0,practice2,NULL,К нам надвигалось стая громкого угрожающе и кричащих гусей.
# 8. Question (NULL if none)..
# 9. Answer.
# 10. Whether or not answer was correct (NULL if N/A).
# 11. Time taken to answer..
1645604450,05f475a6456c929e7b81d1621aaed515,AcceptabilityJudgment,6,0,practice2,NULL,NULL,1,NULL,5801
# 8. Sentence (or sentence MD5).
1645604450,05f475a6456c929e7b81d1621aaed515,AcceptabilityJudgment,15,0,id.obj.d,4,Напряженное молчание заставляло атмосферу сгущаться сильнее и сильнее.
# 8. Question (NULL if none)..
# 9. Answer.
# 10. Whether or not answer was correct (NULL if N/A).
# 11. Time taken to answer..
1645604450,05f475a6456c929e7b81d1621aaed515,AcceptabilityJudgment,15,0,id.obj.d,4,NULL,6,NULL,10842
# 8. Sentence (or sentence MD5).
1645604450,05f475a6456c929e7b81d1621aaed515,AcceptabilityJudgment,47,0,Fu-3F.01,20,Поля любила ароматические свечей%2C но больше всего свету на боялась пожаров.
# 8. Question (NULL if none)..
# 9. Answer.
# 10. Whether or not answer was correct (NULL if N/A).
# 11. Time taken to answer..
1645604450,05f475a6456c929e7b81d1621aaed515,AcceptabilityJudgment,47,0,Fu-3F.01,20,NULL,1,NULL,4498
# 8. Sentence (or sentence MD5).
1645604450,05f475a6456c929e7b81d1621aaed515,AcceptabilityJudgment,32,0,Fg-1F.01,13,Работа с дыханием – неотъемлемая часть подготовки вокалиста. 
# 8. Question (NULL if none)..
# 9. Answer.
# 10. Whether or not answer was correct (NULL if N/A).
# 11. Time taken to answer..
1645604450,05f475a6456c929e7b81d1621aaed515,AcceptabilityJudgment,32,0,Fg-1F.01,13,NULL,7,NULL,7186
# 8. Sentence (or sentence MD5).
1645604450,05f475a6456c929e7b81d1621aaed515,AcceptabilityJudgment,8,0,id.sub.a,1,Егор продолжал биться над поделкой%2C но работа всё не хотела спориться.
# 8. Question (NULL if none)..
# 9. Answer.
# 10. Whether or not answer was correct (NULL if N/A).
# 11. Time taken to answer..
1645604450,05f475a6456c929e7b81d1621aaed515,AcceptabilityJudgment,8,0,id.sub.a,1,NULL,6,NULL,8206
# 8. Sentence (or sentence MD5).
1645604450,05f475a6456c929e7b81d1621aaed515,AcceptabilityJudgment,44,0,Fu-1F.01,19,Как только я вышел из дома%2C пошли сильный снег.
# 8. Question (NULL if none)..
# 9. Answer.
# 10. Whether or not answer was correct (NULL if N/A).
# 11. Time taken to answer..
1645604450,05f475a6456c929e7b81d1621aaed515,AcceptabilityJudgment,44,0,Fu-1F.01,19,NULL,1,NULL,4923
# 8. Sentence (or sentence MD5).
1645604450,05f475a6456c929e7b81d1621aaed515,AcceptabilityJudgment,36,0,Fg-4F.01,15,Из карточных игр Настя любила только игру в сундучки%2C потому что в ней надо думать%2C а не просто надеяться на везение. 
# 8. Question (NULL if none)..
# 9. Answer.
# 10. Whether or not answer was correct (NULL if N/A).
# 11. Time taken to answer..
1645604450,05f475a6456c929e7b81d1621aaed515,AcceptabilityJudgment,36,0,Fg-4F.01,15,NULL,7,NULL,14358
# 8. Sentence (or sentence MD5).
1645604450,05f475a6456c929e7b81d1621aaed515,AcceptabilityJudgment,12,0,id.obj.a,3,Контора неумолимо приближалась к банкротству%2C но вовремя принятые меры таки вынудили дело пойти в гору.
# 8. Question (NULL if none)..
# 9. Answer.
# 10. Whether or not answer was correct (NULL if N/A).
# 11. Time taken to answer..
1645604450,05f475a6456c929e7b81d1621aaed515,AcceptabilityJudgment,12,0,id.obj.a,3,NULL,7,NULL,8548
# 8. Sentence (or sentence MD5).
1645604450,05f475a6456c929e7b81d1621aaed515,AcceptabilityJudgment,52,0,Fu-7F.01,23,Ежедневные часовая поездки на электричке Никита коротался за чтением книг про континентальной философии.
# 8. Question (NULL if none)..
# 9. Answer.
# 10. Whether or not answer was correct (NULL if N/A).
# 11. Time taken to answer..
1645604450,05f475a6456c929e7b81d1621aaed515,AcceptabilityJudgment,52,0,Fu-7F.01,23,NULL,1,NULL,4161
# 8. Sentence (or sentence MD5).
1645604450,05f475a6456c929e7b81d1621aaed515,AcceptabilityJudgment,39,0,Fg-6F.01,16,Говорят%2C нельзя смотреть в зеркало в темноте%2C но я сплю напротив зеркала и пока что ничего за собой не замечал.
# 8. Question (NULL if none)..
# 9. Answer.
# 10. Whether or not answer was correct (NULL if N/A).
# 11. Time taken to answer..
1645604450,05f475a6456c929e7b81d1621aaed515,AcceptabilityJudgment,39,0,Fg-6F.01,16,NULL,7,NULL,10211
# 8. Sentence (or sentence MD5).
1645604450,05f475a6456c929e7b81d1621aaed515,AcceptabilityJudgment,11,0,id.sub.d,2,Можешь отпустить Рекса без поводка%2C но если вдруг у него шарики за ролики решат заехать и он растопчет грядки%2C я не виноват.
# 8. Question (NULL if none)..
# 9. Answer.
# 10. Whether or not answer was correct (NULL if N/A).
# 11. Time taken to answer..
1645604450,05f475a6456c929e7b81d1621aaed515,AcceptabilityJudgment,11,0,id.sub.d,2,NULL,7,NULL,9813
# 8. Sentence (or sentence MD5).
1645604450,05f475a6456c929e7b81d1621aaed515,AcceptabilityJudgment,48,0,Fu-4F.01,21,Вода немало утекло с тех пор%2C что мы с Аней рассорилась.
# 8. Question (NULL if none)..
# 9. Answer.
# 10. Whether or not answer was correct (NULL if N/A).
# 11. Time taken to answer..
1645604450,05f475a6456c929e7b81d1621aaed515,AcceptabilityJudgment,48,0,Fu-4F.01,21,NULL,2,NULL,6595
# 8. Sentence (or sentence MD5).
1645604450,05f475a6456c929e7b81d1621aaed515,AcceptabilityJudgment,40,0,Fg-7F.01,17,Мила посмотрела налево%2C дошла до середины дороги%2C затем%2C согласно правилам дорожного движения%2C посмотрела направо%2C не едет ли машина.
# 8. Question (NULL if none)..
# 9. Answer.
# 10. Whether or not answer was correct (NULL if N/A).
# 11. Time taken to answer..
1645604450,05f475a6456c929e7b81d1621aaed515,AcceptabilityJudgment,40,0,Fg-7F.01,17,NULL,7,NULL,9823
# 8. Sentence (or sentence MD5).
1645604450,05f475a6456c929e7b81d1621aaed515,AcceptabilityJudgment,19,0,id.amb.d,6,Разрушительная война наконец закончилась%2C и правительство велело мечам перековаться на орала.
# 8. Question (NULL if none)..
# 9. Answer.
# 10. Whether or not answer was correct (NULL if N/A).
# 11. Time taken to answer..
1645604450,05f475a6456c929e7b81d1621aaed515,AcceptabilityJudgment,19,0,id.amb.d,6,NULL,6,NULL,7914
# 8. Sentence (or sentence MD5).
1645604450,05f475a6456c929e7b81d1621aaed515,AcceptabilityJudgment,55,0,Fu-8F.02,24,Витя случайно распечатал при принтере его ночную фотографию Сатурна%2C и теперь картридж надо поменяет.
# 8. Question (NULL if none)..
# 9. Answer.
# 10. Whether or not answer was correct (NULL if N/A).
# 11. Time taken to answer..
1645604450,05f475a6456c929e7b81d1621aaed515,AcceptabilityJudgment,55,0,Fu-8F.02,24,NULL,1,NULL,4901
# 8. Sentence (or sentence MD5).
1645604450,05f475a6456c929e7b81d1621aaed515,AcceptabilityJudgment,35,0,Fg-3F.01,14,Я забыла собрать вещи с вечера%2C и из-за этого чуть не опоздала на поезд утром. 
# 8. Question (NULL if none)..
# 9. Answer.
# 10. Whether or not answer was correct (NULL if N/A).
# 11. Time taken to answer..
1645604450,05f475a6456c929e7b81d1621aaed515,AcceptabilityJudgment,35,0,Fg-3F.01,14,NULL,7,NULL,5509
# 8. Sentence (or sentence MD5).
1645604450,05f475a6456c929e7b81d1621aaed515,AcceptabilityJudgment,16,0,id.amb.a,5,Дружелюбный настрой Костиных новых знакомых и бутылка хорошего полусухого вина помогли льду растаять быстро и легко.
# 8. Question (NULL if none)..
# 9. Answer.
# 10. Whether or not answer was correct (NULL if N/A).
# 11. Time taken to answer..
1645604450,05f475a6456c929e7b81d1621aaed515,AcceptabilityJudgment,16,0,id.amb.a,5,NULL,6,NULL,10588
# 8. Sentence (or sentence MD5).
1645604450,05f475a6456c929e7b81d1621aaed515,AcceptabilityJudgment,51,0,Fu-6F.01,22,Вожатые запрещали нам картами%2C тихонько но каждый вечер мы садили и игрались в покер.
# 8. Question (NULL if none)..
# 9. Answer.
# 10. Whether or not answer was correct (NULL if N/A).
# 11. Time taken to answer..
1645604450,05f475a6456c929e7b81d1621aaed515,AcceptabilityJudgment,51,0,Fu-6F.01,22,NULL,1,NULL,5663
# 8. Sentence (or sentence MD5).
1645604450,05f475a6456c929e7b81d1621aaed515,AcceptabilityJudgment,43,0,Fg-8F.02,18,Пока что папа занят%2C но ты можешь зайти через полчаса%2C он будет очень тебе рад.
# 8. Question (NULL if none)..
# 9. Answer.
# 10. Whether or not answer was correct (NULL if N/A).
# 11. Time taken to answer..
1645604450,05f475a6456c929e7b81d1621aaed515,AcceptabilityJudgment,43,0,Fg-8F.02,18,NULL,7,NULL,6310
# 8. Sentence (or sentence MD5).
1645604450,05f475a6456c929e7b81d1621aaed515,FlashSentence,56,0,hiddenCompletionCode,NULL,LIR2049701835
#
# Results on Wed, 23 Feb 2022 08:21:44 GMT
# USER AGENT: Mozilla/5.0 (Linux; U; Android 11; ru-ru; Redmi Note 9 Build/RP1A.200720.011) AppleWebKit/537.36 (KHTML, like Gecko) Version/4.0 Chrome/89.0.4389.116 Mobile Safari/537.36 XiaoMi/MiuiBrowser/12.22.0-gn
# Design number was non-random = 15
#
# Columns below this comment are as follows:
# 1. Results reception time.
# 2. MD5 hash of participant's IP address.
# 3. Controller name.
# 4. Order number of item.
# 5. Inner element number.
# 6. Label.
# 7. Latin Square Group.
# 8. Sentence (or sentence MD5).
1645604504,c021c753c5395d890b07c2ee1d30ea5b,AcceptabilityJudgment,4,0,practice1,NULL,Ульяна сегодня надела своё любимое нежно-сиреневое платье в цветочек.
# 8. Question (NULL if none)..
# 9. Answer.
# 10. Whether or not answer was correct (NULL if N/A).
# 11. Time taken to answer..
1645604504,c021c753c5395d890b07c2ee1d30ea5b,AcceptabilityJudgment,4,0,practice1,NULL,NULL,6,NULL,10920
# 8. Sentence (or sentence MD5).
1645604504,c021c753c5395d890b07c2ee1d30ea5b,AcceptabilityJudgment,6,0,practice2,NULL,К нам надвигалось стая громкого угрожающе и кричащих гусей.
# 8. Question (NULL if none)..
# 9. Answer.
# 10. Whether or not answer was correct (NULL if N/A).
# 11. Time taken to answer..
1645604504,c021c753c5395d890b07c2ee1d30ea5b,AcceptabilityJudgment,6,0,practice2,NULL,NULL,2,NULL,39614
# 8. Sentence (or sentence MD5).
1645604504,c021c753c5395d890b07c2ee1d30ea5b,AcceptabilityJudgment,42,0,Fg-8F.01,18,Наташа села под деревом%2C достала планшет и карандаши и начала делать набросок церкви.
# 8. Question (NULL if none)..
# 9. Answer.
# 10. Whether or not answer was correct (NULL if N/A).
# 11. Time taken to answer..
1645604504,c021c753c5395d890b07c2ee1d30ea5b,AcceptabilityJudgment,42,0,Fg-8F.01,18,NULL,7,NULL,9314
# 8. Sentence (or sentence MD5).
1645604504,c021c753c5395d890b07c2ee1d30ea5b,AcceptabilityJudgment,10,0,id.sub.c,2,Идти по заброшенному селу было очень страшно -- от каждого шороха сердце было готово уйти в пятки.
# 8. Question (NULL if none)..
# 9. Answer.
# 10. Whether or not answer was correct (NULL if N/A).
# 11. Time taken to answer..
1645604504,c021c753c5395d890b07c2ee1d30ea5b,AcceptabilityJudgment,10,0,id.sub.c,2,NULL,7,NULL,7983
# 8. Sentence (or sentence MD5).
1645604504,c021c753c5395d890b07c2ee1d30ea5b,AcceptabilityJudgment,49,0,Fu-4F.02,21,Все любят купаются в моря%2C а больше нравиться собирать мне ракушки и камешки.
# 8. Question (NULL if none)..
# 9. Answer.
# 10. Whether or not answer was correct (NULL if N/A).
# 11. Time taken to answer..
1645604504,c021c753c5395d890b07c2ee1d30ea5b,AcceptabilityJudgment,49,0,Fu-4F.02,21,NULL,1,NULL,9824
# 8. Sentence (or sentence MD5).
1645604504,c021c753c5395d890b07c2ee1d30ea5b,AcceptabilityJudgment,38,0,Fg-5F.02,16,У Димы сегодня отчетный концерт%2C поэтому он и волнуется.
# 8. Question (NULL if none)..
# 9. Answer.
# 10. Whether or not answer was correct (NULL if N/A).
# 11. Time taken to answer..
1645604504,c021c753c5395d890b07c2ee1d30ea5b,AcceptabilityJudgment,38,0,Fg-5F.02,16,NULL,7,NULL,8719
# 8. Sentence (or sentence MD5).
1645604504,c021c753c5395d890b07c2ee1d30ea5b,AcceptabilityJudgment,14,0,id.obj.c,4,Очередной провал заставил почву уйти из-под ног молодого предпринимателя – выхода из ситуации не было никакого.
# 8. Question (NULL if none)..
# 9. Answer.
# 10. Whether or not answer was correct (NULL if N/A).
# 11. Time taken to answer..
1645604504,c021c753c5395d890b07c2ee1d30ea5b,AcceptabilityJudgment,14,0,id.obj.c,4,NULL,7,NULL,8829
# 8. Sentence (or sentence MD5).
1645604504,c021c753c5395d890b07c2ee1d30ea5b,AcceptabilityJudgment,50,0,Fu-5F.02,22,Призом в шахматном турнира был огромный торт 'Птичьим молоком'.
# 8. Question (NULL if none)..
# 9. Answer.
# 10. Whether or not answer was correct (NULL if N/A).
# 11. Time taken to answer..
1645604504,c021c753c5395d890b07c2ee1d30ea5b,AcceptabilityJudgment,50,0,Fu-5F.02,22,NULL,1,NULL,7748
# 8. Sentence (or sentence MD5).
1645604504,c021c753c5395d890b07c2ee1d30ea5b,AcceptabilityJudgment,37,0,Fg-4F.02,15,Жаль%2C я не знал про Михаила%2C что с ним будет столько проблем.
# 8. Question (NULL if none)..
# 9. Answer.
# 10. Whether or not answer was correct (NULL if N/A).
# 11. Time taken to answer..
1645604504,c021c753c5395d890b07c2ee1d30ea5b,AcceptabilityJudgment,37,0,Fg-4F.02,15,NULL,4,NULL,11645
# 8. Sentence (or sentence MD5).
1645604504,c021c753c5395d890b07c2ee1d30ea5b,AcceptabilityJudgment,17,0,id.amb.b,5,Никакие утешения не мешали слезам литься в три ручья – потерялась Анина любимая плюшевая собачка.
# 8. Question (NULL if none)..
# 9. Answer.
# 10. Whether or not answer was correct (NULL if N/A).
# 11. Time taken to answer..
1645604504,c021c753c5395d890b07c2ee1d30ea5b,AcceptabilityJudgment,17,0,id.amb.b,5,NULL,7,NULL,10397
# 8. Sentence (or sentence MD5).
1645604504,c021c753c5395d890b07c2ee1d30ea5b,AcceptabilityJudgment,45,0,Fu-1F.02,19,Я никак не могу пойму%2C зачем в обои понатыканных столько булавок.
# 8. Question (NULL if none)..
# 9. Answer.
# 10. Whether or not answer was correct (NULL if N/A).
# 11. Time taken to answer..
1645604504,c021c753c5395d890b07c2ee1d30ea5b,AcceptabilityJudgment,45,0,Fu-1F.02,19,NULL,1,NULL,8199
# 8. Sentence (or sentence MD5).
1645604504,c021c753c5395d890b07c2ee1d30ea5b,AcceptabilityJudgment,33,0,Fg-1F.02,13,Раньше летом и зимой время переводили%2C чтобы экономить электроэнергию%2C затрачиваемую на освещение. 
# 8. Question (NULL if none)..
# 9. Answer.
# 10. Whether or not answer was correct (NULL if N/A).
# 11. Time taken to answer..
1645604504,c021c753c5395d890b07c2ee1d30ea5b,AcceptabilityJudgment,33,0,Fg-1F.02,13,NULL,7,NULL,13825
# 8. Sentence (or sentence MD5).
1645604504,c021c753c5395d890b07c2ee1d30ea5b,AcceptabilityJudgment,18,0,id.amb.c,6,Прошло уже полтора часа с начала контрольной по биологии%2C и время начинало истекать.
# 8. Question (NULL if none)..
# 9. Answer.
# 10. Whether or not answer was correct (NULL if N/A).
# 11. Time taken to answer..
1645604504,c021c753c5395d890b07c2ee1d30ea5b,AcceptabilityJudgment,18,0,id.amb.c,6,NULL,3,NULL,12532
# 8. Sentence (or sentence MD5).
1645604504,c021c753c5395d890b07c2ee1d30ea5b,AcceptabilityJudgment,46,0,Fu-2F.02,20,Бабушка готовила блины по-особенного: ставила дрожжевое и добавляла манку тесту.
# 8. Question (NULL if none)..
# 9. Answer.
# 10. Whether or not answer was correct (NULL if N/A).
# 11. Time taken to answer..
1645604504,c021c753c5395d890b07c2ee1d30ea5b,AcceptabilityJudgment,46,0,Fu-2F.02,20,NULL,1,NULL,5104
# 8. Sentence (or sentence MD5).
1645604504,c021c753c5395d890b07c2ee1d30ea5b,AcceptabilityJudgment,41,0,Fg-7F.02,17,У нас под окном постоянно проезжают мотоциклисты%2C аж стёкла дребезжат.
# 8. Question (NULL if none)..
# 9. Answer.
# 10. Whether or not answer was correct (NULL if N/A).
# 11. Time taken to answer..
1645604504,c021c753c5395d890b07c2ee1d30ea5b,AcceptabilityJudgment,41,0,Fg-7F.02,17,NULL,7,NULL,4180
# 8. Sentence (or sentence MD5).
1645604504,c021c753c5395d890b07c2ee1d30ea5b,AcceptabilityJudgment,13,0,id.obj.b,3,Проект надо заканчивать к среде%2C но пока ничто так и не вынудило лёд тронуться – все будто игнорируют существование дедлайна.
# 8. Question (NULL if none)..
# 9. Answer.
# 10. Whether or not answer was correct (NULL if N/A).
# 11. Time taken to answer..
1645604504,c021c753c5395d890b07c2ee1d30ea5b,AcceptabilityJudgment,13,0,id.obj.b,3,NULL,6,NULL,18452
# 8. Sentence (or sentence MD5).
1645604504,c021c753c5395d890b07c2ee1d30ea5b,AcceptabilityJudgment,54,0,Fu-8F.01,24,У Лиды есть родственнике в Варшаве%2C у она которых гостит каждое летом.
# 8. Question (NULL if none)..
# 9. Answer.
# 10. Whether or not answer was correct (NULL if N/A).
# 11. Time taken to answer..
1645604504,c021c753c5395d890b07c2ee1d30ea5b,AcceptabilityJudgment,54,0,Fu-8F.01,24,NULL,1,NULL,7070
# 8. Sentence (or sentence MD5).
1645604504,c021c753c5395d890b07c2ee1d30ea5b,AcceptabilityJudgment,34,0,Fg-2F.02,14,Мама тихо читает Лёне книжку про Муми-троллей%2C пока он не уснёт.
# 8. Question (NULL if none)..
# 9. Answer.
# 10. Whether or not answer was correct (NULL if N/A).
# 11. Time taken to answer..
1645604504,c021c753c5395d890b07c2ee1d30ea5b,AcceptabilityJudgment,34,0,Fg-2F.02,14,NULL,1,NULL,15200
# 8. Sentence (or sentence MD5).
1645604504,c021c753c5395d890b07c2ee1d30ea5b,AcceptabilityJudgment,9,0,id.sub.b,1,Я третий час сидел над отчетом%2C и голова уже была готова разлететься на кусочки.
# 8. Question (NULL if none)..
# 9. Answer.
# 10. Whether or not answer was correct (NULL if N/A).
# 11. Time taken to answer..
1645604504,c021c753c5395d890b07c2ee1d30ea5b,AcceptabilityJudgment,9,0,id.sub.b,1,NULL,7,NULL,8191
# 8. Sentence (or sentence MD5).
1645604504,c021c753c5395d890b07c2ee1d30ea5b,AcceptabilityJudgment,53,0,Fu-7F.02,23,Охра – один из самый важных цветов в акварели палитре%2C ним приглушают яркие цвета.
# 8. Question (NULL if none)..
# 9. Answer.
# 10. Whether or not answer was correct (NULL if N/A).
# 11. Time taken to answer..
1645604504,c021c753c5395d890b07c2ee1d30ea5b,AcceptabilityJudgment,53,0,Fu-7F.02,23,NULL,1,NULL,10563
# 8. Sentence (or sentence MD5).
1645604504,c021c753c5395d890b07c2ee1d30ea5b,FlashSentence,56,0,hiddenCompletionCode,NULL,LIR4543588220
#
# Results on Wed, 23 Feb 2022 08:30:13 GMT
# USER AGENT: Mozilla/5.0 (iPhone; CPU iPhone OS 15_2_1 like Mac OS X) AppleWebKit/605.1.15 (KHTML, like Gecko) Version/15.2 Mobile/15E148 Safari/604.1
# Design number was non-random = 20
#
# Columns below this comment are as follows:
# 1. Results reception time.
# 2. MD5 hash of participant's IP address.
# 3. Controller name.
# 4. Order number of item.
# 5. Inner element number.
# 6. Label.
# 7. Latin Square Group.
# 8. Sentence (or sentence MD5).
1645605013,6b3124ad26f9c2794d01168d29bd7f0f,AcceptabilityJudgment,4,0,practice1,NULL,Ульяна сегодня надела своё любимое нежно-сиреневое платье в цветочек.
# 8. Question (NULL if none)..
# 9. Answer.
# 10. Whether or not answer was correct (NULL if N/A).
# 11. Time taken to answer..
1645605013,6b3124ad26f9c2794d01168d29bd7f0f,AcceptabilityJudgment,4,0,practice1,NULL,NULL,7,NULL,9748
# 8. Sentence (or sentence MD5).
1645605013,6b3124ad26f9c2794d01168d29bd7f0f,AcceptabilityJudgment,6,0,practice2,NULL,К нам надвигалось стая громкого угрожающе и кричащих гусей.
# 8. Question (NULL if none)..
# 9. Answer.
# 10. Whether or not answer was correct (NULL if N/A).
# 11. Time taken to answer..
1645605013,6b3124ad26f9c2794d01168d29bd7f0f,AcceptabilityJudgment,6,0,practice2,NULL,NULL,1,NULL,9434
# 8. Sentence (or sentence MD5).
1645605013,6b3124ad26f9c2794d01168d29bd7f0f,AcceptabilityJudgment,35,0,Fg-3F.01,14,Я забыла собрать вещи с вечера%2C и из-за этого чуть не опоздала на поезд утром. 
# 8. Question (NULL if none)..
# 9. Answer.
# 10. Whether or not answer was correct (NULL if N/A).
# 11. Time taken to answer..
1645605013,6b3124ad26f9c2794d01168d29bd7f0f,AcceptabilityJudgment,35,0,Fg-3F.01,14,NULL,7,NULL,11394
# 8. Sentence (or sentence MD5).
1645605013,6b3124ad26f9c2794d01168d29bd7f0f,AcceptabilityJudgment,8,0,id.sub.a,1,Егор продолжал биться над поделкой%2C но работа всё не хотела спориться.
# 8. Question (NULL if none)..
# 9. Answer.
# 10. Whether or not answer was correct (NULL if N/A).
# 11. Time taken to answer..
1645605013,6b3124ad26f9c2794d01168d29bd7f0f,AcceptabilityJudgment,8,0,id.sub.a,1,NULL,3,NULL,13575
# 8. Sentence (or sentence MD5).
1645605013,6b3124ad26f9c2794d01168d29bd7f0f,AcceptabilityJudgment,51,0,Fu-6F.01,22,Вожатые запрещали нам картами%2C тихонько но каждый вечер мы садили и игрались в покер.
# 8. Question (NULL if none)..
# 9. Answer.
# 10. Whether or not answer was correct (NULL if N/A).
# 11. Time taken to answer..
1645605013,6b3124ad26f9c2794d01168d29bd7f0f,AcceptabilityJudgment,51,0,Fu-6F.01,22,NULL,2,NULL,51020
# 8. Sentence (or sentence MD5).
1645605013,6b3124ad26f9c2794d01168d29bd7f0f,AcceptabilityJudgment,32,0,Fg-1F.01,13,Работа с дыханием – неотъемлемая часть подготовки вокалиста. 
# 8. Question (NULL if none)..
# 9. Answer.
# 10. Whether or not answer was correct (NULL if N/A).
# 11. Time taken to answer..
1645605013,6b3124ad26f9c2794d01168d29bd7f0f,AcceptabilityJudgment,32,0,Fg-1F.01,13,NULL,7,NULL,7026
# 8. Sentence (or sentence MD5).
1645605013,6b3124ad26f9c2794d01168d29bd7f0f,AcceptabilityJudgment,19,0,id.amb.d,6,Разрушительная война наконец закончилась%2C и правительство велело мечам перековаться на орала.
# 8. Question (NULL if none)..
# 9. Answer.
# 10. Whether or not answer was correct (NULL if N/A).
# 11. Time taken to answer..
1645605013,6b3124ad26f9c2794d01168d29bd7f0f,AcceptabilityJudgment,19,0,id.amb.d,6,NULL,1,NULL,8392
# 8. Sentence (or sentence MD5).
1645605013,6b3124ad26f9c2794d01168d29bd7f0f,AcceptabilityJudgment,55,0,Fu-8F.02,24,Витя случайно распечатал при принтере его ночную фотографию Сатурна%2C и теперь картридж надо поменяет.
# 8. Question (NULL if none)..
# 9. Answer.
# 10. Whether or not answer was correct (NULL if N/A).
# 11. Time taken to answer..
1645605013,6b3124ad26f9c2794d01168d29bd7f0f,AcceptabilityJudgment,55,0,Fu-8F.02,24,NULL,1,NULL,14562
# 8. Sentence (or sentence MD5).
1645605013,6b3124ad26f9c2794d01168d29bd7f0f,AcceptabilityJudgment,39,0,Fg-6F.01,16,Говорят%2C нельзя смотреть в зеркало в темноте%2C но я сплю напротив зеркала и пока что ничего за собой не замечал.
# 8. Question (NULL if none)..
# 9. Answer.
# 10. Whether or not answer was correct (NULL if N/A).
# 11. Time taken to answer..
1645605013,6b3124ad26f9c2794d01168d29bd7f0f,AcceptabilityJudgment,39,0,Fg-6F.01,16,NULL,2,NULL,23152
# 8. Sentence (or sentence MD5).
1645605013,6b3124ad26f9c2794d01168d29bd7f0f,AcceptabilityJudgment,11,0,id.sub.d,2,Можешь отпустить Рекса без поводка%2C но если вдруг у него шарики за ролики решат заехать и он растопчет грядки%2C я не виноват.
# 8. Question (NULL if none)..
# 9. Answer.
# 10. Whether or not answer was correct (NULL if N/A).
# 11. Time taken to answer..
1645605013,6b3124ad26f9c2794d01168d29bd7f0f,AcceptabilityJudgment,11,0,id.sub.d,2,NULL,6,NULL,21707
# 8. Sentence (or sentence MD5).
1645605013,6b3124ad26f9c2794d01168d29bd7f0f,AcceptabilityJudgment,44,0,Fu-1F.01,19,Как только я вышел из дома%2C пошли сильный снег.
# 8. Question (NULL if none)..
# 9. Answer.
# 10. Whether or not answer was correct (NULL if N/A).
# 11. Time taken to answer..
1645605013,6b3124ad26f9c2794d01168d29bd7f0f,AcceptabilityJudgment,44,0,Fu-1F.01,19,NULL,1,NULL,12005
# 8. Sentence (or sentence MD5).
1645605013,6b3124ad26f9c2794d01168d29bd7f0f,AcceptabilityJudgment,43,0,Fg-8F.02,18,Пока что папа занят%2C но ты можешь зайти через полчаса%2C он будет очень тебе рад.
# 8. Question (NULL if none)..
# 9. Answer.
# 10. Whether or not answer was correct (NULL if N/A).
# 11. Time taken to answer..
1645605013,6b3124ad26f9c2794d01168d29bd7f0f,AcceptabilityJudgment,43,0,Fg-8F.02,18,NULL,7,NULL,9256
# 8. Sentence (or sentence MD5).
1645605013,6b3124ad26f9c2794d01168d29bd7f0f,AcceptabilityJudgment,15,0,id.obj.d,4,Напряженное молчание заставляло атмосферу сгущаться сильнее и сильнее.
# 8. Question (NULL if none)..
# 9. Answer.
# 10. Whether or not answer was correct (NULL if N/A).
# 11. Time taken to answer..
1645605013,6b3124ad26f9c2794d01168d29bd7f0f,AcceptabilityJudgment,15,0,id.obj.d,4,NULL,6,NULL,10424
# 8. Sentence (or sentence MD5).
1645605013,6b3124ad26f9c2794d01168d29bd7f0f,AcceptabilityJudgment,48,0,Fu-4F.01,21,Вода немало утекло с тех пор%2C что мы с Аней рассорилась.
# 8. Question (NULL if none)..
# 9. Answer.
# 10. Whether or not answer was correct (NULL if N/A).
# 11. Time taken to answer..
1645605013,6b3124ad26f9c2794d01168d29bd7f0f,AcceptabilityJudgment,48,0,Fu-4F.01,21,NULL,1,NULL,8867
# 8. Sentence (or sentence MD5).
1645605013,6b3124ad26f9c2794d01168d29bd7f0f,AcceptabilityJudgment,36,0,Fg-4F.01,15,Из карточных игр Настя любила только игру в сундучки%2C потому что в ней надо думать%2C а не просто надеяться на везение. 
# 8. Question (NULL if none)..
# 9. Answer.
# 10. Whether or not answer was correct (NULL if N/A).
# 11. Time taken to answer..
1645605013,6b3124ad26f9c2794d01168d29bd7f0f,AcceptabilityJudgment,36,0,Fg-4F.01,15,NULL,7,NULL,18056
# 8. Sentence (or sentence MD5).
1645605013,6b3124ad26f9c2794d01168d29bd7f0f,AcceptabilityJudgment,12,0,id.obj.a,3,Контора неумолимо приближалась к банкротству%2C но вовремя принятые меры таки вынудили дело пойти в гору.
# 8. Question (NULL if none)..
# 9. Answer.
# 10. Whether or not answer was correct (NULL if N/A).
# 11. Time taken to answer..
1645605013,6b3124ad26f9c2794d01168d29bd7f0f,AcceptabilityJudgment,12,0,id.obj.a,3,NULL,4,NULL,12488
# 8. Sentence (or sentence MD5).
1645605013,6b3124ad26f9c2794d01168d29bd7f0f,AcceptabilityJudgment,47,0,Fu-3F.01,20,Поля любила ароматические свечей%2C но больше всего свету на боялась пожаров.
# 8. Question (NULL if none)..
# 9. Answer.
# 10. Whether or not answer was correct (NULL if N/A).
# 11. Time taken to answer..
1645605013,6b3124ad26f9c2794d01168d29bd7f0f,AcceptabilityJudgment,47,0,Fu-3F.01,20,NULL,1,NULL,13804
# 8. Sentence (or sentence MD5).
1645605013,6b3124ad26f9c2794d01168d29bd7f0f,AcceptabilityJudgment,40,0,Fg-7F.01,17,Мила посмотрела налево%2C дошла до середины дороги%2C затем%2C согласно правилам дорожного движения%2C посмотрела направо%2C не едет ли машина.
# 8. Question (NULL if none)..
# 9. Answer.
# 10. Whether or not answer was correct (NULL if N/A).
# 11. Time taken to answer..
1645605013,6b3124ad26f9c2794d01168d29bd7f0f,AcceptabilityJudgment,40,0,Fg-7F.01,17,NULL,7,NULL,48175
# 8. Sentence (or sentence MD5).
1645605013,6b3124ad26f9c2794d01168d29bd7f0f,AcceptabilityJudgment,16,0,id.amb.a,5,Дружелюбный настрой Костиных новых знакомых и бутылка хорошего полусухого вина помогли льду растаять быстро и легко.
# 8. Question (NULL if none)..
# 9. Answer.
# 10. Whether or not answer was correct (NULL if N/A).
# 11. Time taken to answer..
1645605013,6b3124ad26f9c2794d01168d29bd7f0f,AcceptabilityJudgment,16,0,id.amb.a,5,NULL,7,NULL,11003
# 8. Sentence (or sentence MD5).
1645605013,6b3124ad26f9c2794d01168d29bd7f0f,AcceptabilityJudgment,52,0,Fu-7F.01,23,Ежедневные часовая поездки на электричке Никита коротался за чтением книг про континентальной философии.
# 8. Question (NULL if none)..
# 9. Answer.
# 10. Whether or not answer was correct (NULL if N/A).
# 11. Time taken to answer..
1645605013,6b3124ad26f9c2794d01168d29bd7f0f,AcceptabilityJudgment,52,0,Fu-7F.01,23,NULL,1,NULL,11090
# 8. Sentence (or sentence MD5).
1645605013,6b3124ad26f9c2794d01168d29bd7f0f,FlashSentence,56,0,hiddenCompletionCode,NULL,LIR1026630826
#
# Results on Wed, 23 Feb 2022 08:32:08 GMT
# USER AGENT: Mozilla/5.0 (Linux; Android 11; SM-A405FM) AppleWebKit/537.36 (KHTML, like Gecko) Chrome/98.0.4758.101 Mobile Safari/537.36
# Design number was non-random = 23
#
# Columns below this comment are as follows:
# 1. Results reception time.
# 2. MD5 hash of participant's IP address.
# 3. Controller name.
# 4. Order number of item.
# 5. Inner element number.
# 6. Label.
# 7. Latin Square Group.
# 8. Sentence (or sentence MD5).
1645605128,a09b64b7dd39568c0bcfa929a20824d0,AcceptabilityJudgment,4,0,practice1,NULL,Ульяна сегодня надела своё любимое нежно-сиреневое платье в цветочек.
# 8. Question (NULL if none)..
# 9. Answer.
# 10. Whether or not answer was correct (NULL if N/A).
# 11. Time taken to answer..
1645605128,a09b64b7dd39568c0bcfa929a20824d0,AcceptabilityJudgment,4,0,practice1,NULL,NULL,7,NULL,7570
# 8. Sentence (or sentence MD5).
1645605128,a09b64b7dd39568c0bcfa929a20824d0,AcceptabilityJudgment,6,0,practice2,NULL,К нам надвигалось стая громкого угрожающе и кричащих гусей.
# 8. Question (NULL if none)..
# 9. Answer.
# 10. Whether or not answer was correct (NULL if N/A).
# 11. Time taken to answer..
1645605128,a09b64b7dd39568c0bcfa929a20824d0,AcceptabilityJudgment,6,0,practice2,NULL,NULL,1,NULL,7599
# 8. Sentence (or sentence MD5).
1645605128,a09b64b7dd39568c0bcfa929a20824d0,AcceptabilityJudgment,9,0,id.sub.b,1,Я третий час сидел над отчетом%2C и голова уже была готова разлететься на кусочки.
# 8. Question (NULL if none)..
# 9. Answer.
# 10. Whether or not answer was correct (NULL if N/A).
# 11. Time taken to answer..
1645605128,a09b64b7dd39568c0bcfa929a20824d0,AcceptabilityJudgment,9,0,id.sub.b,1,NULL,4,NULL,35803
# 8. Sentence (or sentence MD5).
1645605128,a09b64b7dd39568c0bcfa929a20824d0,AcceptabilityJudgment,41,0,Fg-7F.02,17,У нас под окном постоянно проезжают мотоциклисты%2C аж стёкла дребезжат.
# 8. Question (NULL if none)..
# 9. Answer.
# 10. Whether or not answer was correct (NULL if N/A).
# 11. Time taken to answer..
1645605128,a09b64b7dd39568c0bcfa929a20824d0,AcceptabilityJudgment,41,0,Fg-7F.02,17,NULL,3,NULL,21017
# 8. Sentence (or sentence MD5).
1645605128,a09b64b7dd39568c0bcfa929a20824d0,AcceptabilityJudgment,45,0,Fu-1F.02,19,Я никак не могу пойму%2C зачем в обои понатыканных столько булавок.
# 8. Question (NULL if none)..
# 9. Answer.
# 10. Whether or not answer was correct (NULL if N/A).
# 11. Time taken to answer..
1645605128,a09b64b7dd39568c0bcfa929a20824d0,AcceptabilityJudgment,45,0,Fu-1F.02,19,NULL,1,NULL,9034
# 8. Sentence (or sentence MD5).
1645605128,a09b64b7dd39568c0bcfa929a20824d0,AcceptabilityJudgment,13,0,id.obj.b,3,Проект надо заканчивать к среде%2C но пока ничто так и не вынудило лёд тронуться – все будто игнорируют существование дедлайна.
# 8. Question (NULL if none)..
# 9. Answer.
# 10. Whether or not answer was correct (NULL if N/A).
# 11. Time taken to answer..
1645605128,a09b64b7dd39568c0bcfa929a20824d0,AcceptabilityJudgment,13,0,id.obj.b,3,NULL,3,NULL,39072
# 8. Sentence (or sentence MD5).
1645605128,a09b64b7dd39568c0bcfa929a20824d0,AcceptabilityJudgment,38,0,Fg-5F.02,16,У Димы сегодня отчетный концерт%2C поэтому он и волнуется.
# 8. Question (NULL if none)..
# 9. Answer.
# 10. Whether or not answer was correct (NULL if N/A).
# 11. Time taken to answer..
1645605128,a09b64b7dd39568c0bcfa929a20824d0,AcceptabilityJudgment,38,0,Fg-5F.02,16,NULL,7,NULL,6747
# 8. Sentence (or sentence MD5).
1645605128,a09b64b7dd39568c0bcfa929a20824d0,AcceptabilityJudgment,49,0,Fu-4F.02,21,Все любят купаются в моря%2C а больше нравиться собирать мне ракушки и камешки.
# 8. Question (NULL if none)..
# 9. Answer.
# 10. Whether or not answer was correct (NULL if N/A).
# 11. Time taken to answer..
1645605128,a09b64b7dd39568c0bcfa929a20824d0,AcceptabilityJudgment,49,0,Fu-4F.02,21,NULL,3,NULL,12217
# 8. Sentence (or sentence MD5).
1645605128,a09b64b7dd39568c0bcfa929a20824d0,AcceptabilityJudgment,10,0,id.sub.c,2,Идти по заброшенному селу было очень страшно -- от каждого шороха сердце было готово уйти в пятки.
# 8. Question (NULL if none)..
# 9. Answer.
# 10. Whether or not answer was correct (NULL if N/A).
# 11. Time taken to answer..
1645605128,a09b64b7dd39568c0bcfa929a20824d0,AcceptabilityJudgment,10,0,id.sub.c,2,NULL,2,NULL,9118
# 8. Sentence (or sentence MD5).
1645605128,a09b64b7dd39568c0bcfa929a20824d0,AcceptabilityJudgment,42,0,Fg-8F.01,18,Наташа села под деревом%2C достала планшет и карандаши и начала делать набросок церкви.
# 8. Question (NULL if none)..
# 9. Answer.
# 10. Whether or not answer was correct (NULL if N/A).
# 11. Time taken to answer..
1645605128,a09b64b7dd39568c0bcfa929a20824d0,AcceptabilityJudgment,42,0,Fg-8F.01,18,NULL,7,NULL,11408
# 8. Sentence (or sentence MD5).
1645605128,a09b64b7dd39568c0bcfa929a20824d0,AcceptabilityJudgment,46,0,Fu-2F.02,20,Бабушка готовила блины по-особенного: ставила дрожжевое и добавляла манку тесту.
# 8. Question (NULL if none)..
# 9. Answer.
# 10. Whether or not answer was correct (NULL if N/A).
# 11. Time taken to answer..
1645605128,a09b64b7dd39568c0bcfa929a20824d0,AcceptabilityJudgment,46,0,Fu-2F.02,20,NULL,3,NULL,13963
# 8. Sentence (or sentence MD5).
1645605128,a09b64b7dd39568c0bcfa929a20824d0,AcceptabilityJudgment,14,0,id.obj.c,4,Очередной провал заставил почву уйти из-под ног молодого предпринимателя – выхода из ситуации не было никакого.
# 8. Question (NULL if none)..
# 9. Answer.
# 10. Whether or not answer was correct (NULL if N/A).
# 11. Time taken to answer..
1645605128,a09b64b7dd39568c0bcfa929a20824d0,AcceptabilityJudgment,14,0,id.obj.c,4,NULL,1,NULL,9822
# 8. Sentence (or sentence MD5).
1645605128,a09b64b7dd39568c0bcfa929a20824d0,AcceptabilityJudgment,37,0,Fg-4F.02,15,Жаль%2C я не знал про Михаила%2C что с ним будет столько проблем.
# 8. Question (NULL if none)..
# 9. Answer.
# 10. Whether or not answer was correct (NULL if N/A).
# 11. Time taken to answer..
1645605128,a09b64b7dd39568c0bcfa929a20824d0,AcceptabilityJudgment,37,0,Fg-4F.02,15,NULL,7,NULL,11302
# 8. Sentence (or sentence MD5).
1645605128,a09b64b7dd39568c0bcfa929a20824d0,AcceptabilityJudgment,54,0,Fu-8F.01,24,У Лиды есть родственнике в Варшаве%2C у она которых гостит каждое летом.
# 8. Question (NULL if none)..
# 9. Answer.
# 10. Whether or not answer was correct (NULL if N/A).
# 11. Time taken to answer..
1645605128,a09b64b7dd39568c0bcfa929a20824d0,AcceptabilityJudgment,54,0,Fu-8F.01,24,NULL,5,NULL,24596
# 8. Sentence (or sentence MD5).
1645605128,a09b64b7dd39568c0bcfa929a20824d0,AcceptabilityJudgment,18,0,id.amb.c,6,Прошло уже полтора часа с начала контрольной по биологии%2C и время начинало истекать.
# 8. Question (NULL if none)..
# 9. Answer.
# 10. Whether or not answer was correct (NULL if N/A).
# 11. Time taken to answer..
1645605128,a09b64b7dd39568c0bcfa929a20824d0,AcceptabilityJudgment,18,0,id.amb.c,6,NULL,4,NULL,16093
# 8. Sentence (or sentence MD5).
1645605128,a09b64b7dd39568c0bcfa929a20824d0,AcceptabilityJudgment,33,0,Fg-1F.02,13,Раньше летом и зимой время переводили%2C чтобы экономить электроэнергию%2C затрачиваемую на освещение. 
# 8. Question (NULL if none)..
# 9. Answer.
# 10. Whether or not answer was correct (NULL if N/A).
# 11. Time taken to answer..
1645605128,a09b64b7dd39568c0bcfa929a20824d0,AcceptabilityJudgment,33,0,Fg-1F.02,13,NULL,3,NULL,10754
# 8. Sentence (or sentence MD5).
1645605128,a09b64b7dd39568c0bcfa929a20824d0,AcceptabilityJudgment,50,0,Fu-5F.02,22,Призом в шахматном турнира был огромный торт 'Птичьим молоком'.
# 8. Question (NULL if none)..
# 9. Answer.
# 10. Whether or not answer was correct (NULL if N/A).
# 11. Time taken to answer..
1645605128,a09b64b7dd39568c0bcfa929a20824d0,AcceptabilityJudgment,50,0,Fu-5F.02,22,NULL,1,NULL,6069
# 8. Sentence (or sentence MD5).
