#
# Results on Sun, 14 Nov 2021 09:08:12 GMT
# USER AGENT: Mozilla/5.0 (Macintosh; Intel Mac OS X 10_15_7) AppleWebKit/605.1.15 (KHTML, like Gecko) Version/15.1 Safari/605.1.15
# Design number was non-random = 1
#
# Columns below this comment are as follows:
# 1. Results reception time.
# 2. MD5 hash of participant's IP address.
# 3. Controller name.
# 4. Order number of item.
# 5. Inner element number.
# 6. Label.
# 7. Latin Square Group.
# 8. Sentence (or sentence MD5).
1636880892,f22bc56aad1bc122b31322a6a09ec2f6,4,0,practice,NULL,This is a practice sentence%2C which you should rate a 4.
# 8. Question (NULL if none)..
# 9. Answer.
# 10. Whether or not answer was correct (NULL if N/A).
# 11. Time taken to answer..
1636880892,f22bc56aad1bc122b31322a6a09ec2f6,4,0,practice,NULL,NULL,5,NULL,6872
# 8. Sentence (or sentence MD5).
1636880892,f22bc56aad1bc122b31322a6a09ec2f6,38,0,Fu-1F.01,NULL,Анечка совсем не хотела есть суп%2C потому что терпеть не могло вареный луком. 
# 8. Question (NULL if none)..
# 9. Answer.
# 10. Whether or not answer was correct (NULL if N/A).
# 11. Time taken to answer..
1636880892,f22bc56aad1bc122b31322a6a09ec2f6,38,0,Fu-1F.01,NULL,NULL,4,NULL,2672
# 8. Sentence (or sentence MD5).
1636880892,f22bc56aad1bc122b31322a6a09ec2f6,22,0,Fg-1F.01,NULL,Если бы не дождь с градом%2C я бы пошла сегодня гулять в Петровский парк. 
# 8. Question (NULL if none)..
# 9. Answer.
# 10. Whether or not answer was correct (NULL if N/A).
# 11. Time taken to answer..
1636880892,f22bc56aad1bc122b31322a6a09ec2f6,22,0,Fg-1F.01,NULL,NULL,4,NULL,820
# 8. Sentence (or sentence MD5).
1636880892,f22bc56aad1bc122b31322a6a09ec2f6,42,0,Fu-3F.01,NULL,Дома холодные полы%2C поэтому бабушка настаивает%2C чтобы гости наденут тапочки. 
# 8. Question (NULL if none)..
# 9. Answer.
# 10. Whether or not answer was correct (NULL if N/A).
# 11. Time taken to answer..
1636880892,f22bc56aad1bc122b31322a6a09ec2f6,42,0,Fu-3F.01,NULL,NULL,4,NULL,599
# 8. Sentence (or sentence MD5).
1636880892,f22bc56aad1bc122b31322a6a09ec2f6,27,0,Fg-3F.02,NULL,Курины уехали на дачу на две недели%2C и до них теперь не дозвонишься.
# 8. Question (NULL if none)..
# 9. Answer.
# 10. Whether or not answer was correct (NULL if N/A).
# 11. Time taken to answer..
1636880892,f22bc56aad1bc122b31322a6a09ec2f6,27,0,Fg-3F.02,NULL,NULL,4,NULL,462
# 8. Sentence (or sentence MD5).
1636880892,f22bc56aad1bc122b31322a6a09ec2f6,44,0,Fu-4F.01,NULL,Дедлайн стремительно приближался%2C а я успевает сделать примерно ничего. 
# 8. Question (NULL if none)..
# 9. Answer.
# 10. Whether or not answer was correct (NULL if N/A).
# 11. Time taken to answer..
1636880892,f22bc56aad1bc122b31322a6a09ec2f6,44,0,Fu-4F.01,NULL,NULL,4,NULL,557
# 8. Sentence (or sentence MD5).
1636880892,f22bc56aad1bc122b31322a6a09ec2f6,32,0,Fg-6F.01,NULL,Никто не заставляет Витю просыпаться в шесть утра%2C он сам поднимается и идет на пробежку. 
# 8. Question (NULL if none)..
# 9. Answer.
# 10. Whether or not answer was correct (NULL if N/A).
# 11. Time taken to answer..
1636880892,f22bc56aad1bc122b31322a6a09ec2f6,32,0,Fg-6F.01,NULL,NULL,4,NULL,514
# 8. Sentence (or sentence MD5).
1636880892,f22bc56aad1bc122b31322a6a09ec2f6,52,0,Fu-8F.01,NULL,Нике явно не нравилось вечеринке%2C у неё болела голова и она поскорее хотела пойдёт домой.
# 8. Question (NULL if none)..
# 9. Answer.
# 10. Whether or not answer was correct (NULL if N/A).
# 11. Time taken to answer..
1636880892,f22bc56aad1bc122b31322a6a09ec2f6,52,0,Fu-8F.01,NULL,NULL,4,NULL,461
# 8. Sentence (or sentence MD5).
1636880892,f22bc56aad1bc122b31322a6a09ec2f6,12,0,id.mesh.pass.a,2,Хорошее воспитание не мешало грехам водиться за Аркашей. 
# 8. Question (NULL if none)..
# 9. Answer.
# 10. Whether or not answer was correct (NULL if N/A).
# 11. Time taken to answer..
1636880892,f22bc56aad1bc122b31322a6a09ec2f6,12,0,id.mesh.pass.a,2,NULL,4,NULL,411
# 8. Sentence (or sentence MD5).
1636880892,f22bc56aad1bc122b31322a6a09ec2f6,23,0,Fg-1F.02,NULL,Меня пригласили на выставку%2C посвященную русским супрематистам%2C но мне совсем не хотелось идти. 
# 8. Question (NULL if none)..
# 9. Answer.
# 10. Whether or not answer was correct (NULL if N/A).
# 11. Time taken to answer..
1636880892,f22bc56aad1bc122b31322a6a09ec2f6,23,0,Fg-1F.02,NULL,NULL,4,NULL,410
# 8. Sentence (or sentence MD5).
1636880892,f22bc56aad1bc122b31322a6a09ec2f6,39,0,Fu-1F.02,NULL,Все были взволнованы после ухода Петра Степановича%2C даже Лизе. 
# 8. Question (NULL if none)..
# 9. Answer.
# 10. Whether or not answer was correct (NULL if N/A).
# 11. Time taken to answer..
1636880892,f22bc56aad1bc122b31322a6a09ec2f6,39,0,Fu-1F.02,NULL,NULL,4,NULL,459
# 8. Sentence (or sentence MD5).
1636880892,f22bc56aad1bc122b31322a6a09ec2f6,30,0,Fg-5F.01,NULL,На поле рядом с моим домом уже давно ничего не выращивают. 
# 8. Question (NULL if none)..
# 9. Answer.
# 10. Whether or not answer was correct (NULL if N/A).
# 11. Time taken to answer..
1636880892,f22bc56aad1bc122b31322a6a09ec2f6,30,0,Fg-5F.01,NULL,NULL,4,NULL,485
# 8. Sentence (or sentence MD5).
1636880892,f22bc56aad1bc122b31322a6a09ec2f6,41,0,Fu-2F.02,NULL,Если мой рассказ тебя не убедишь%2C поговори с Алисой – она отлично разбирается в людях. 
# 8. Question (NULL if none)..
# 9. Answer.
# 10. Whether or not answer was correct (NULL if N/A).
# 11. Time taken to answer..
1636880892,f22bc56aad1bc122b31322a6a09ec2f6,41,0,Fu-2F.02,NULL,NULL,4,NULL,436
# 8. Sentence (or sentence MD5).
1636880892,f22bc56aad1bc122b31322a6a09ec2f6,24,0,Fg-2F.01,NULL,Алёше уже не нужны костыли – его нога совсем зажила. 
# 8. Question (NULL if none)..
# 9. Answer.
# 10. Whether or not answer was correct (NULL if N/A).
# 11. Time taken to answer..
1636880892,f22bc56aad1bc122b31322a6a09ec2f6,24,0,Fg-2F.01,NULL,NULL,4,NULL,425
# 8. Sentence (or sentence MD5).
1636880892,f22bc56aad1bc122b31322a6a09ec2f6,51,0,Fu-7F.02,NULL,Дойдя до вертолётной площадки%2C мы повернулись назад и увидели закат холодное осеннего солнце.
# 8. Question (NULL if none)..
# 9. Answer.
# 10. Whether or not answer was correct (NULL if N/A).
# 11. Time taken to answer..
1636880892,f22bc56aad1bc122b31322a6a09ec2f6,51,0,Fu-7F.02,NULL,NULL,4,NULL,445
# 8. Sentence (or sentence MD5).
1636880892,f22bc56aad1bc122b31322a6a09ec2f6,34,0,Fg-7F.01,NULL,Квартира в пригороде Москвы дешевле%2C но ежедневно добираться оттуда на работу – большая трата времени. 
# 8. Question (NULL if none)..
# 9. Answer.
# 10. Whether or not answer was correct (NULL if N/A).
# 11. Time taken to answer..
1636880892,f22bc56aad1bc122b31322a6a09ec2f6,34,0,Fg-7F.01,NULL,NULL,4,NULL,458
# 8. Sentence (or sentence MD5).
1636880892,f22bc56aad1bc122b31322a6a09ec2f6,49,0,Fu-6F.02,NULL,Виктор опять не принес сочинение на урок литературы%2C и учитель снова начал за отчитывать его возмутительное неприлежание.
# 8. Question (NULL if none)..
# 9. Answer.
# 10. Whether or not answer was correct (NULL if N/A).
# 11. Time taken to answer..
1636880892,f22bc56aad1bc122b31322a6a09ec2f6,49,0,Fu-6F.02,NULL,NULL,4,NULL,350
# 8. Sentence (or sentence MD5).
1636880892,f22bc56aad1bc122b31322a6a09ec2f6,18,0,id.pomo.act.a,4,Следователи были в полном замешательстве%2C но рассказ очевидца помог всему встать на свои места. 
# 8. Question (NULL if none)..
# 9. Answer.
# 10. Whether or not answer was correct (NULL if N/A).
# 11. Time taken to answer..
1636880892,f22bc56aad1bc122b31322a6a09ec2f6,18,0,id.pomo.act.a,4,NULL,4,NULL,408
# 8. Sentence (or sentence MD5).
1636880892,f22bc56aad1bc122b31322a6a09ec2f6,33,0,Fg-6F.02,NULL,Нет ничего красивее блестящих на солнце луж.
# 8. Question (NULL if none)..
# 9. Answer.
# 10. Whether or not answer was correct (NULL if N/A).
# 11. Time taken to answer..
1636880892,f22bc56aad1bc122b31322a6a09ec2f6,33,0,Fg-6F.02,NULL,NULL,4,NULL,407
# 8. Sentence (or sentence MD5).
1636880892,f22bc56aad1bc122b31322a6a09ec2f6,46,0,Fu-5F.01,NULL,Ты правда научился читать всего в три лет?
# 8. Question (NULL if none)..
# 9. Answer.
# 10. Whether or not answer was correct (NULL if N/A).
# 11. Time taken to answer..
1636880892,f22bc56aad1bc122b31322a6a09ec2f6,46,0,Fu-5F.01,NULL,NULL,4,NULL,464
# 8. Sentence (or sentence MD5).
1636880892,f22bc56aad1bc122b31322a6a09ec2f6,25,0,Fg-2F.02,NULL,Сколько он ни пытался%2C не даётся ему сербский язык – то ли дело итальянский.
# 8. Question (NULL if none)..
# 9. Answer.
# 10. Whether or not answer was correct (NULL if N/A).
# 11. Time taken to answer..
1636880892,f22bc56aad1bc122b31322a6a09ec2f6,25,0,Fg-2F.02,NULL,NULL,4,NULL,429
# 8. Sentence (or sentence MD5).
1636880892,f22bc56aad1bc122b31322a6a09ec2f6,48,0,Fu-6F.01,NULL,На стене висел акварельные этюды%2C исчерканные углевым карандашом для придания глубины%2C карта Израиля и круглыми часы. 
# 8. Question (NULL if none)..
# 9. Answer.
# 10. Whether or not answer was correct (NULL if N/A).
# 11. Time taken to answer..
1636880892,f22bc56aad1bc122b31322a6a09ec2f6,48,0,Fu-6F.01,NULL,NULL,4,NULL,409
# 8. Sentence (or sentence MD5).
1636880892,f22bc56aad1bc122b31322a6a09ec2f6,35,0,Fg-7F.02,NULL,Новосибирск оказался вовсе не таким%2C каким Лиза его себе представляла.
# 8. Question (NULL if none)..
# 9. Answer.
# 10. Whether or not answer was correct (NULL if N/A).
# 11. Time taken to answer..
1636880892,f22bc56aad1bc122b31322a6a09ec2f6,35,0,Fg-7F.02,NULL,NULL,4,NULL,331
# 8. Sentence (or sentence MD5).
1636880892,f22bc56aad1bc122b31322a6a09ec2f6,47,0,Fu-5F.02,NULL,Рыбу здесь запрещено ловил сетями и пугал бы взрывчаткой.
# 8. Question (NULL if none)..
# 9. Answer.
# 10. Whether or not answer was correct (NULL if N/A).
# 11. Time taken to answer..
1636880892,f22bc56aad1bc122b31322a6a09ec2f6,47,0,Fu-5F.02,NULL,NULL,4,NULL,385
# 8. Sentence (or sentence MD5).
1636880892,f22bc56aad1bc122b31322a6a09ec2f6,28,0,Fg-4F.01,NULL,Химия так плохо давалась Насте%2C что пришлось нанять репетитора – студента 4 курса МГУ. 
# 8. Question (NULL if none)..
# 9. Answer.
# 10. Whether or not answer was correct (NULL if N/A).
# 11. Time taken to answer..
1636880892,f22bc56aad1bc122b31322a6a09ec2f6,28,0,Fg-4F.01,NULL,NULL,4,NULL,314
# 8. Sentence (or sentence MD5).
1636880892,f22bc56aad1bc122b31322a6a09ec2f6,40,0,Fu-2F.01,NULL,У меня никогда не было музыкальных способностей%2C но я отличалась склонностью рисованием. 
# 8. Question (NULL if none)..
# 9. Answer.
# 10. Whether or not answer was correct (NULL if N/A).
# 11. Time taken to answer..
1636880892,f22bc56aad1bc122b31322a6a09ec2f6,40,0,Fu-2F.01,NULL,NULL,4,NULL,445
# 8. Sentence (or sentence MD5).
1636880892,f22bc56aad1bc122b31322a6a09ec2f6,7,0,id.zast.act.b,1,Напряженное молчание заставляло атмосферу сгущаться сильнее и сильнее. 
# 8. Question (NULL if none)..
# 9. Answer.
# 10. Whether or not answer was correct (NULL if N/A).
# 11. Time taken to answer..
1636880892,f22bc56aad1bc122b31322a6a09ec2f6,7,0,id.zast.act.b,1,NULL,4,NULL,409
# 8. Sentence (or sentence MD5).
1636880892,f22bc56aad1bc122b31322a6a09ec2f6,36,0,Fg-8F.01,NULL,Папа купил лимонад и килограмм креветок – вечером будет маленькое застолье.
# 8. Question (NULL if none)..
# 9. Answer.
# 10. Whether or not answer was correct (NULL if N/A).
# 11. Time taken to answer..
1636880892,f22bc56aad1bc122b31322a6a09ec2f6,36,0,Fg-8F.01,NULL,NULL,4,NULL,482
# 8. Sentence (or sentence MD5).
1636880892,f22bc56aad1bc122b31322a6a09ec2f6,43,0,Fu-3F.02,NULL,Больше всего маленький Ваня боялся темноты%2C и поэтому света засыпал без никогда. 
# 8. Question (NULL if none)..
# 9. Answer.
# 10. Whether or not answer was correct (NULL if N/A).
# 11. Time taken to answer..
1636880892,f22bc56aad1bc122b31322a6a09ec2f6,43,0,Fu-3F.02,NULL,NULL,4,NULL,482
# 8. Sentence (or sentence MD5).
1636880892,f22bc56aad1bc122b31322a6a09ec2f6,37,0,Fg-8F.02,NULL,Каждый раз%2C когда я прохожу мимо памятника Ленину%2C мне кажется%2C что он шатается.
# 8. Question (NULL if none)..
# 9. Answer.
# 10. Whether or not answer was correct (NULL if N/A).
# 11. Time taken to answer..
1636880892,f22bc56aad1bc122b31322a6a09ec2f6,37,0,Fg-8F.02,NULL,NULL,4,NULL,470
# 8. Sentence (or sentence MD5).
1636880892,f22bc56aad1bc122b31322a6a09ec2f6,50,0,Fu-7F.01,NULL,Со второго ряда уже было лектора плохо слышный%2C а до задних парт доходило еле-еле.
# 8. Question (NULL if none)..
# 9. Answer.
# 10. Whether or not answer was correct (NULL if N/A).
# 11. Time taken to answer..
1636880892,f22bc56aad1bc122b31322a6a09ec2f6,50,0,Fu-7F.01,NULL,NULL,4,NULL,449
# 8. Sentence (or sentence MD5).
1636880892,f22bc56aad1bc122b31322a6a09ec2f6,31,0,Fg-5F.02,NULL,Девчонки столпились у окна%2C чтобы посмотреть на двойную радугу%2C но никак не могли её разглядеть.
# 8. Question (NULL if none)..
# 9. Answer.
# 10. Whether or not answer was correct (NULL if N/A).
# 11. Time taken to answer..
1636880892,f22bc56aad1bc122b31322a6a09ec2f6,31,0,Fg-5F.02,NULL,NULL,4,NULL,432
# 8. Sentence (or sentence MD5).
1636880892,f22bc56aad1bc122b31322a6a09ec2f6,53,0,Fu-8F.02,NULL,Как настоящая творческая личность%2C Никитка скоро украсил обои в прихожей при помощью своих новых фломастерами.
# 8. Question (NULL if none)..
# 9. Answer.
# 10. Whether or not answer was correct (NULL if N/A).
# 11. Time taken to answer..
1636880892,f22bc56aad1bc122b31322a6a09ec2f6,53,0,Fu-8F.02,NULL,NULL,4,NULL,435
# 8. Sentence (or sentence MD5).
1636880892,f22bc56aad1bc122b31322a6a09ec2f6,29,0,Fg-4F.02,NULL,Римма боится собак%2C да так%2C что может в обморок упасть%2C если Рекс на неё зарычит.
# 8. Question (NULL if none)..
# 9. Answer.
# 10. Whether or not answer was correct (NULL if N/A).
# 11. Time taken to answer..
1636880892,f22bc56aad1bc122b31322a6a09ec2f6,29,0,Fg-4F.02,NULL,NULL,4,NULL,350
# 8. Sentence (or sentence MD5).
1636880892,f22bc56aad1bc122b31322a6a09ec2f6,45,0,Fu-4F.02,NULL,Один наушник нашлись в углу прихожей%2C а другой – под тумбочке. 
# 8. Question (NULL if none)..
# 9. Answer.
# 10. Whether or not answer was correct (NULL if N/A).
# 11. Time taken to answer..
1636880892,f22bc56aad1bc122b31322a6a09ec2f6,45,0,Fu-4F.02,NULL,NULL,4,NULL,368
# 8. Sentence (or sentence MD5).
1636880892,f22bc56aad1bc122b31322a6a09ec2f6,17,0,id.pozv.pass.b,3,Школьная директриса Лариса Эдуардовна была сторонницей индивидуального подхода к ученикам и не позволяла ярлыкам вешаться без разбора. 
# 8. Question (NULL if none)..
# 9. Answer.
# 10. Whether or not answer was correct (NULL if N/A).
# 11. Time taken to answer..
1636880892,f22bc56aad1bc122b31322a6a09ec2f6,17,0,id.pozv.pass.b,3,NULL,4,NULL,384
# 8. Sentence (or sentence MD5).
1636880892,f22bc56aad1bc122b31322a6a09ec2f6,26,0,Fg-3F.01,NULL,Мама надела сапоги%2C чёрное пальто%2C накинула на голову подаренный отцом шелковый платок и вышла во двор. 
# 8. Question (NULL if none)..
# 9. Answer.
# 10. Whether or not answer was correct (NULL if N/A).
# 11. Time taken to answer..
1636880892,f22bc56aad1bc122b31322a6a09ec2f6,26,0,Fg-3F.01,NULL,NULL,4,NULL,486
# 8. Sentence (or sentence MD5).
1636880892,f22bc56aad1bc122b31322a6a09ec2f6,54,0,hiddenCompletionCode,NULL,LIR1693035392
#
# Results on Sun, 14 Nov 2021 09:12:20 GMT
# USER AGENT: Mozilla/5.0 (Macintosh; Intel Mac OS X 10_15_7) AppleWebKit/605.1.15 (KHTML, like Gecko) Version/15.1 Safari/605.1.15
# Design number was non-random = 2
#
# Columns below this comment are as follows:
# 1. Results reception time.
# 2. MD5 hash of participant's IP address.
# 3. Controller name.
# 4. Order number of item.
# 5. Inner element number.
# 6. Label.
# 7. Latin Square Group.
# 8. Sentence (or sentence MD5).
1636881140,f22bc56aad1bc122b31322a6a09ec2f6,4,0,practice,NULL,This is a practice sentence%2C which you should rate a 4.
# 8. Question (NULL if none)..
# 9. Answer.
# 10. Whether or not answer was correct (NULL if N/A).
# 11. Time taken to answer..
1636881140,f22bc56aad1bc122b31322a6a09ec2f6,4,0,practice,NULL,NULL,4,NULL,2183
# 8. Sentence (or sentence MD5).
1636881140,f22bc56aad1bc122b31322a6a09ec2f6,39,0,Fu-1F.02,NULL,Все были взволнованы после ухода Петра Степановича%2C даже Лизе. 
# 8. Question (NULL if none)..
# 9. Answer.
# 10. Whether or not answer was correct (NULL if N/A).
# 11. Time taken to answer..
1636881140,f22bc56aad1bc122b31322a6a09ec2f6,39,0,Fu-1F.02,NULL,NULL,4,NULL,2403
# 8. Sentence (or sentence MD5).
1636881140,f22bc56aad1bc122b31322a6a09ec2f6,22,0,Fg-1F.01,NULL,Если бы не дождь с градом%2C я бы пошла сегодня гулять в Петровский парк. 
# 8. Question (NULL if none)..
# 9. Answer.
# 10. Whether or not answer was correct (NULL if N/A).
# 11. Time taken to answer..
1636881140,f22bc56aad1bc122b31322a6a09ec2f6,22,0,Fg-1F.01,NULL,NULL,4,NULL,482
# 8. Sentence (or sentence MD5).
1636881140,f22bc56aad1bc122b31322a6a09ec2f6,53,0,Fu-8F.02,NULL,Как настоящая творческая личность%2C Никитка скоро украсил обои в прихожей при помощью своих новых фломастерами.
# 8. Question (NULL if none)..
# 9. Answer.
# 10. Whether or not answer was correct (NULL if N/A).
# 11. Time taken to answer..
1636881140,f22bc56aad1bc122b31322a6a09ec2f6,53,0,Fu-8F.02,NULL,NULL,4,NULL,484
# 8. Sentence (or sentence MD5).
1636881140,f22bc56aad1bc122b31322a6a09ec2f6,36,0,Fg-8F.01,NULL,Папа купил лимонад и килограмм креветок – вечером будет маленькое застолье.
# 8. Question (NULL if none)..
# 9. Answer.
# 10. Whether or not answer was correct (NULL if N/A).
# 11. Time taken to answer..
1636881140,f22bc56aad1bc122b31322a6a09ec2f6,36,0,Fg-8F.01,NULL,NULL,4,NULL,423
# 8. Sentence (or sentence MD5).
1636881140,f22bc56aad1bc122b31322a6a09ec2f6,52,0,Fu-8F.01,NULL,Нике явно не нравилось вечеринке%2C у неё болела голова и она поскорее хотела пойдёт домой.
# 8. Question (NULL if none)..
# 9. Answer.
# 10. Whether or not answer was correct (NULL if N/A).
# 11. Time taken to answer..
1636881140,f22bc56aad1bc122b31322a6a09ec2f6,52,0,Fu-8F.01,NULL,NULL,4,NULL,852
# 8. Sentence (or sentence MD5).
1636881140,f22bc56aad1bc122b31322a6a09ec2f6,35,0,Fg-7F.02,NULL,Новосибирск оказался вовсе не таким%2C каким Лиза его себе представляла.
# 8. Question (NULL if none)..
# 9. Answer.
# 10. Whether or not answer was correct (NULL if N/A).
# 11. Time taken to answer..
1636881140,f22bc56aad1bc122b31322a6a09ec2f6,35,0,Fg-7F.02,NULL,NULL,4,NULL,465
# 8. Sentence (or sentence MD5).
1636881140,f22bc56aad1bc122b31322a6a09ec2f6,13,0,id.mesh.pass.b,2,Родительский контроль должен мешать головам детей забиваться чушью%2C которую они могут увидеть в интернете.
# 8. Question (NULL if none)..
# 9. Answer.
# 10. Whether or not answer was correct (NULL if N/A).
# 11. Time taken to answer..
1636881140,f22bc56aad1bc122b31322a6a09ec2f6,13,0,id.mesh.pass.b,2,NULL,4,NULL,742
# 8. Sentence (or sentence MD5).
1636881140,f22bc56aad1bc122b31322a6a09ec2f6,43,0,Fu-3F.02,NULL,Больше всего маленький Ваня боялся темноты%2C и поэтому света засыпал без никогда. 
# 8. Question (NULL if none)..
# 9. Answer.
# 10. Whether or not answer was correct (NULL if N/A).
# 11. Time taken to answer..
1636881140,f22bc56aad1bc122b31322a6a09ec2f6,43,0,Fu-3F.02,NULL,NULL,4,NULL,572
# 8. Sentence (or sentence MD5).
1636881140,f22bc56aad1bc122b31322a6a09ec2f6,30,0,Fg-5F.01,NULL,На поле рядом с моим домом уже давно ничего не выращивают. 
# 8. Question (NULL if none)..
# 9. Answer.
# 10. Whether or not answer was correct (NULL if N/A).
# 11. Time taken to answer..
1636881140,f22bc56aad1bc122b31322a6a09ec2f6,30,0,Fg-5F.01,NULL,NULL,4,NULL,458
# 8. Sentence (or sentence MD5).
1636881140,f22bc56aad1bc122b31322a6a09ec2f6,44,0,Fu-4F.01,NULL,Дедлайн стремительно приближался%2C а я успевает сделать примерно ничего. 
# 8. Question (NULL if none)..
# 9. Answer.
# 10. Whether or not answer was correct (NULL if N/A).
# 11. Time taken to answer..
1636881140,f22bc56aad1bc122b31322a6a09ec2f6,44,0,Fu-4F.01,NULL,NULL,4,NULL,516
# 8. Sentence (or sentence MD5).
1636881140,f22bc56aad1bc122b31322a6a09ec2f6,29,0,Fg-4F.02,NULL,Римма боится собак%2C да так%2C что может в обморок упасть%2C если Рекс на неё зарычит.
# 8. Question (NULL if none)..
# 9. Answer.
# 10. Whether or not answer was correct (NULL if N/A).
# 11. Time taken to answer..
1636881140,f22bc56aad1bc122b31322a6a09ec2f6,29,0,Fg-4F.02,NULL,NULL,4,NULL,508
# 8. Sentence (or sentence MD5).
1636881140,f22bc56aad1bc122b31322a6a09ec2f6,42,0,Fu-3F.01,NULL,Дома холодные полы%2C поэтому бабушка настаивает%2C чтобы гости наденут тапочки. 
# 8. Question (NULL if none)..
# 9. Answer.
# 10. Whether or not answer was correct (NULL if N/A).
# 11. Time taken to answer..
1636881140,f22bc56aad1bc122b31322a6a09ec2f6,42,0,Fu-3F.01,NULL,NULL,4,NULL,475
# 8. Sentence (or sentence MD5).
1636881140,f22bc56aad1bc122b31322a6a09ec2f6,24,0,Fg-2F.01,NULL,Алёше уже не нужны костыли – его нога совсем зажила. 
# 8. Question (NULL if none)..
# 9. Answer.
# 10. Whether or not answer was correct (NULL if N/A).
# 11. Time taken to answer..
1636881140,f22bc56aad1bc122b31322a6a09ec2f6,24,0,Fg-2F.01,NULL,NULL,4,NULL,402
# 8. Sentence (or sentence MD5).
1636881140,f22bc56aad1bc122b31322a6a09ec2f6,45,0,Fu-4F.02,NULL,Один наушник нашлись в углу прихожей%2C а другой – под тумбочке. 
# 8. Question (NULL if none)..
# 9. Answer.
# 10. Whether or not answer was correct (NULL if N/A).
# 11. Time taken to answer..
1636881140,f22bc56aad1bc122b31322a6a09ec2f6,45,0,Fu-4F.02,NULL,NULL,4,NULL,471
# 8. Sentence (or sentence MD5).
1636881140,f22bc56aad1bc122b31322a6a09ec2f6,26,0,Fg-3F.01,NULL,Мама надела сапоги%2C чёрное пальто%2C накинула на голову подаренный отцом шелковый платок и вышла во двор. 
# 8. Question (NULL if none)..
# 9. Answer.
# 10. Whether or not answer was correct (NULL if N/A).
# 11. Time taken to answer..
1636881140,f22bc56aad1bc122b31322a6a09ec2f6,26,0,Fg-3F.01,NULL,NULL,4,NULL,478
# 8. Sentence (or sentence MD5).
1636881140,f22bc56aad1bc122b31322a6a09ec2f6,8,0,id.zast.pass.a,1,Приход в администрацию нового руководства заставил декорации смениться.
# 8. Question (NULL if none)..
# 9. Answer.
# 10. Whether or not answer was correct (NULL if N/A).
# 11. Time taken to answer..
1636881140,f22bc56aad1bc122b31322a6a09ec2f6,8,0,id.zast.pass.a,1,NULL,4,NULL,469
# 8. Sentence (or sentence MD5).
1636881140,f22bc56aad1bc122b31322a6a09ec2f6,50,0,Fu-7F.01,NULL,Со второго ряда уже было лектора плохо слышный%2C а до задних парт доходило еле-еле.
# 8. Question (NULL if none)..
# 9. Answer.
# 10. Whether or not answer was correct (NULL if N/A).
# 11. Time taken to answer..
1636881140,f22bc56aad1bc122b31322a6a09ec2f6,50,0,Fu-7F.01,NULL,NULL,4,NULL,466
# 8. Sentence (or sentence MD5).
1636881140,f22bc56aad1bc122b31322a6a09ec2f6,23,0,Fg-1F.02,NULL,Меня пригласили на выставку%2C посвященную русским супрематистам%2C но мне совсем не хотелось идти. 
# 8. Question (NULL if none)..
# 9. Answer.
# 10. Whether or not answer was correct (NULL if N/A).
# 11. Time taken to answer..
1636881140,f22bc56aad1bc122b31322a6a09ec2f6,23,0,Fg-1F.02,NULL,NULL,4,NULL,455
# 8. Sentence (or sentence MD5).
1636881140,f22bc56aad1bc122b31322a6a09ec2f6,47,0,Fu-5F.02,NULL,Рыбу здесь запрещено ловил сетями и пугал бы взрывчаткой.
# 8. Question (NULL if none)..
# 9. Answer.
# 10. Whether or not answer was correct (NULL if N/A).
# 11. Time taken to answer..
1636881140,f22bc56aad1bc122b31322a6a09ec2f6,47,0,Fu-5F.02,NULL,NULL,4,NULL,452
# 8. Sentence (or sentence MD5).
1636881140,f22bc56aad1bc122b31322a6a09ec2f6,28,0,Fg-4F.01,NULL,Химия так плохо давалась Насте%2C что пришлось нанять репетитора – студента 4 курса МГУ. 
# 8. Question (NULL if none)..
# 9. Answer.
# 10. Whether or not answer was correct (NULL if N/A).
# 11. Time taken to answer..
1636881140,f22bc56aad1bc122b31322a6a09ec2f6,28,0,Fg-4F.01,NULL,NULL,4,NULL,501
# 8. Sentence (or sentence MD5).
1636881140,f22bc56aad1bc122b31322a6a09ec2f6,38,0,Fu-1F.01,NULL,Анечка совсем не хотела есть суп%2C потому что терпеть не могло вареный луком. 
# 8. Question (NULL if none)..
# 9. Answer.
# 10. Whether or not answer was correct (NULL if N/A).
# 11. Time taken to answer..
1636881140,f22bc56aad1bc122b31322a6a09ec2f6,38,0,Fu-1F.01,NULL,NULL,4,NULL,515
# 8. Sentence (or sentence MD5).
1636881140,f22bc56aad1bc122b31322a6a09ec2f6,37,0,Fg-8F.02,NULL,Каждый раз%2C когда я прохожу мимо памятника Ленину%2C мне кажется%2C что он шатается.
# 8. Question (NULL if none)..
# 9. Answer.
# 10. Whether or not answer was correct (NULL if N/A).
# 11. Time taken to answer..
1636881140,f22bc56aad1bc122b31322a6a09ec2f6,37,0,Fg-8F.02,NULL,NULL,4,NULL,433
# 8. Sentence (or sentence MD5).
1636881140,f22bc56aad1bc122b31322a6a09ec2f6,40,0,Fu-2F.01,NULL,У меня никогда не было музыкальных способностей%2C но я отличалась склонностью рисованием. 
# 8. Question (NULL if none)..
# 9. Answer.
# 10. Whether or not answer was correct (NULL if N/A).
# 11. Time taken to answer..
1636881140,f22bc56aad1bc122b31322a6a09ec2f6,40,0,Fu-2F.01,NULL,NULL,4,NULL,396
# 8. Sentence (or sentence MD5).
1636881140,f22bc56aad1bc122b31322a6a09ec2f6,25,0,Fg-2F.02,NULL,Сколько он ни пытался%2C не даётся ему сербский язык – то ли дело итальянский.
# 8. Question (NULL if none)..
# 9. Answer.
# 10. Whether or not answer was correct (NULL if N/A).
# 11. Time taken to answer..
1636881140,f22bc56aad1bc122b31322a6a09ec2f6,25,0,Fg-2F.02,NULL,NULL,4,NULL,436
# 8. Sentence (or sentence MD5).
1636881140,f22bc56aad1bc122b31322a6a09ec2f6,19,0,id.pomo.act.b,4,Алёна была в ярости%2C когда узнала%2C где муж побывал той ночью%2C но искренние извинения и пышный букет пионов помогли гневу смениться на милость.
# 8. Question (NULL if none)..
# 9. Answer.
# 10. Whether or not answer was correct (NULL if N/A).
# 11. Time taken to answer..
1636881140,f22bc56aad1bc122b31322a6a09ec2f6,19,0,id.pomo.act.b,4,NULL,4,NULL,483
# 8. Sentence (or sentence MD5).
1636881140,f22bc56aad1bc122b31322a6a09ec2f6,46,0,Fu-5F.01,NULL,Ты правда научился читать всего в три лет?
# 8. Question (NULL if none)..
# 9. Answer.
# 10. Whether or not answer was correct (NULL if N/A).
# 11. Time taken to answer..
1636881140,f22bc56aad1bc122b31322a6a09ec2f6,46,0,Fu-5F.01,NULL,NULL,4,NULL,414
# 8. Sentence (or sentence MD5).
1636881140,f22bc56aad1bc122b31322a6a09ec2f6,31,0,Fg-5F.02,NULL,Девчонки столпились у окна%2C чтобы посмотреть на двойную радугу%2C но никак не могли её разглядеть.
# 8. Question (NULL if none)..
# 9. Answer.
# 10. Whether or not answer was correct (NULL if N/A).
# 11. Time taken to answer..
1636881140,f22bc56aad1bc122b31322a6a09ec2f6,31,0,Fg-5F.02,NULL,NULL,4,NULL,406
# 8. Sentence (or sentence MD5).
1636881140,f22bc56aad1bc122b31322a6a09ec2f6,49,0,Fu-6F.02,NULL,Виктор опять не принес сочинение на урок литературы%2C и учитель снова начал за отчитывать его возмутительное неприлежание.
# 8. Question (NULL if none)..
# 9. Answer.
# 10. Whether or not answer was correct (NULL if N/A).
# 11. Time taken to answer..
1636881140,f22bc56aad1bc122b31322a6a09ec2f6,49,0,Fu-6F.02,NULL,NULL,4,NULL,424
# 8. Sentence (or sentence MD5).
1636881140,f22bc56aad1bc122b31322a6a09ec2f6,27,0,Fg-3F.02,NULL,Курины уехали на дачу на две недели%2C и до них теперь не дозвонишься.
# 8. Question (NULL if none)..
# 9. Answer.
# 10. Whether or not answer was correct (NULL if N/A).
# 11. Time taken to answer..
1636881140,f22bc56aad1bc122b31322a6a09ec2f6,27,0,Fg-3F.02,NULL,NULL,4,NULL,414
# 8. Sentence (or sentence MD5).
1636881140,f22bc56aad1bc122b31322a6a09ec2f6,51,0,Fu-7F.02,NULL,Дойдя до вертолётной площадки%2C мы повернулись назад и увидели закат холодное осеннего солнце.
# 8. Question (NULL if none)..
# 9. Answer.
# 10. Whether or not answer was correct (NULL if N/A).
# 11. Time taken to answer..
1636881140,f22bc56aad1bc122b31322a6a09ec2f6,51,0,Fu-7F.02,NULL,NULL,4,NULL,390
# 8. Sentence (or sentence MD5).
1636881140,f22bc56aad1bc122b31322a6a09ec2f6,33,0,Fg-6F.02,NULL,Нет ничего красивее блестящих на солнце луж.
# 8. Question (NULL if none)..
# 9. Answer.
# 10. Whether or not answer was correct (NULL if N/A).
# 11. Time taken to answer..
1636881140,f22bc56aad1bc122b31322a6a09ec2f6,33,0,Fg-6F.02,NULL,NULL,4,NULL,409
# 8. Sentence (or sentence MD5).
1636881140,f22bc56aad1bc122b31322a6a09ec2f6,41,0,Fu-2F.02,NULL,Если мой рассказ тебя не убедишь%2C поговори с Алисой – она отлично разбирается в людях. 
# 8. Question (NULL if none)..
# 9. Answer.
# 10. Whether or not answer was correct (NULL if N/A).
# 11. Time taken to answer..
1636881140,f22bc56aad1bc122b31322a6a09ec2f6,41,0,Fu-2F.02,NULL,NULL,4,NULL,393
# 8. Sentence (or sentence MD5).
1636881140,f22bc56aad1bc122b31322a6a09ec2f6,32,0,Fg-6F.01,NULL,Никто не заставляет Витю просыпаться в шесть утра%2C он сам поднимается и идет на пробежку. 
# 8. Question (NULL if none)..
# 9. Answer.
# 10. Whether or not answer was correct (NULL if N/A).
# 11. Time taken to answer..
1636881140,f22bc56aad1bc122b31322a6a09ec2f6,32,0,Fg-6F.01,NULL,NULL,4,NULL,376
# 8. Sentence (or sentence MD5).
1636881140,f22bc56aad1bc122b31322a6a09ec2f6,14,0,id.pozv.act.a,3,Бесконечные промедления не позволяли делу сдвинуться с мёртвой точки.
# 8. Question (NULL if none)..
# 9. Answer.
# 10. Whether or not answer was correct (NULL if N/A).
# 11. Time taken to answer..
1636881140,f22bc56aad1bc122b31322a6a09ec2f6,14,0,id.pozv.act.a,3,NULL,4,NULL,403
# 8. Sentence (or sentence MD5).
1636881140,f22bc56aad1bc122b31322a6a09ec2f6,48,0,Fu-6F.01,NULL,На стене висел акварельные этюды%2C исчерканные углевым карандашом для придания глубины%2C карта Израиля и круглыми часы. 
# 8. Question (NULL if none)..
# 9. Answer.
# 10. Whether or not answer was correct (NULL if N/A).
# 11. Time taken to answer..
1636881140,f22bc56aad1bc122b31322a6a09ec2f6,48,0,Fu-6F.01,NULL,NULL,4,NULL,413
# 8. Sentence (or sentence MD5).
1636881140,f22bc56aad1bc122b31322a6a09ec2f6,34,0,Fg-7F.01,NULL,Квартира в пригороде Москвы дешевле%2C но ежедневно добираться оттуда на работу – большая трата времени. 
# 8. Question (NULL if none)..
# 9. Answer.
# 10. Whether or not answer was correct (NULL if N/A).
# 11. Time taken to answer..
1636881140,f22bc56aad1bc122b31322a6a09ec2f6,34,0,Fg-7F.01,NULL,NULL,4,NULL,403
# 8. Sentence (or sentence MD5).
1636881140,f22bc56aad1bc122b31322a6a09ec2f6,54,0,hiddenCompletionCode,NULL,LIR7100975439
#
# Results on Sun, 14 Nov 2021 09:13:30 GMT
# USER AGENT: Mozilla/5.0 (Macintosh; Intel Mac OS X 10_15_7) AppleWebKit/605.1.15 (KHTML, like Gecko) Version/15.1 Safari/605.1.15
# Design number was non-random = 3
#
# Columns below this comment are as follows:
# 1. Results reception time.
# 2. MD5 hash of participant's IP address.
# 3. Controller name.
# 4. Order number of item.
# 5. Inner element number.
# 6. Label.
# 7. Latin Square Group.
# 8. Sentence (or sentence MD5).
1636881210,f22bc56aad1bc122b31322a6a09ec2f6,4,0,practice,NULL,This is a practice sentence%2C which you should rate a 4.
# 8. Question (NULL if none)..
# 9. Answer.
# 10. Whether or not answer was correct (NULL if N/A).
# 11. Time taken to answer..
1636881210,f22bc56aad1bc122b31322a6a09ec2f6,4,0,practice,NULL,NULL,2,NULL,1012
# 8. Sentence (or sentence MD5).
1636881210,f22bc56aad1bc122b31322a6a09ec2f6,31,0,Fg-5F.02,NULL,Девчонки столпились у окна%2C чтобы посмотреть на двойную радугу%2C но никак не могли её разглядеть.
# 8. Question (NULL if none)..
# 9. Answer.
# 10. Whether or not answer was correct (NULL if N/A).
# 11. Time taken to answer..
1636881210,f22bc56aad1bc122b31322a6a09ec2f6,31,0,Fg-5F.02,NULL,NULL,5,NULL,2392
# 8. Sentence (or sentence MD5).
1636881210,f22bc56aad1bc122b31322a6a09ec2f6,43,0,Fu-3F.02,NULL,Больше всего маленький Ваня боялся темноты%2C и поэтому света засыпал без никогда. 
# 8. Question (NULL if none)..
# 9. Answer.
# 10. Whether or not answer was correct (NULL if N/A).
# 11. Time taken to answer..
1636881210,f22bc56aad1bc122b31322a6a09ec2f6,43,0,Fu-3F.02,NULL,NULL,5,NULL,512
# 8. Sentence (or sentence MD5).
1636881210,f22bc56aad1bc122b31322a6a09ec2f6,27,0,Fg-3F.02,NULL,Курины уехали на дачу на две недели%2C и до них теперь не дозвонишься.
# 8. Question (NULL if none)..
# 9. Answer.
# 10. Whether or not answer was correct (NULL if N/A).
# 11. Time taken to answer..
1636881210,f22bc56aad1bc122b31322a6a09ec2f6,27,0,Fg-3F.02,NULL,NULL,5,NULL,456
# 8. Sentence (or sentence MD5).
1636881210,f22bc56aad1bc122b31322a6a09ec2f6,39,0,Fu-1F.02,NULL,Все были взволнованы после ухода Петра Степановича%2C даже Лизе. 
# 8. Question (NULL if none)..
# 9. Answer.
# 10. Whether or not answer was correct (NULL if N/A).
# 11. Time taken to answer..
1636881210,f22bc56aad1bc122b31322a6a09ec2f6,39,0,Fu-1F.02,NULL,NULL,5,NULL,494
# 8. Sentence (or sentence MD5).
1636881210,f22bc56aad1bc122b31322a6a09ec2f6,30,0,Fg-5F.01,NULL,На поле рядом с моим домом уже давно ничего не выращивают. 
# 8. Question (NULL if none)..
# 9. Answer.
# 10. Whether or not answer was correct (NULL if N/A).
# 11. Time taken to answer..
1636881210,f22bc56aad1bc122b31322a6a09ec2f6,30,0,Fg-5F.01,NULL,NULL,5,NULL,467
# 8. Sentence (or sentence MD5).
1636881210,f22bc56aad1bc122b31322a6a09ec2f6,44,0,Fu-4F.01,NULL,Дедлайн стремительно приближался%2C а я успевает сделать примерно ничего. 
# 8. Question (NULL if none)..
# 9. Answer.
# 10. Whether or not answer was correct (NULL if N/A).
# 11. Time taken to answer..
1636881210,f22bc56aad1bc122b31322a6a09ec2f6,44,0,Fu-4F.01,NULL,NULL,5,NULL,668
# 8. Sentence (or sentence MD5).
1636881210,f22bc56aad1bc122b31322a6a09ec2f6,26,0,Fg-3F.01,NULL,Мама надела сапоги%2C чёрное пальто%2C накинула на голову подаренный отцом шелковый платок и вышла во двор. 
# 8. Question (NULL if none)..
# 9. Answer.
# 10. Whether or not answer was correct (NULL if N/A).
# 11. Time taken to answer..
1636881210,f22bc56aad1bc122b31322a6a09ec2f6,26,0,Fg-3F.01,NULL,NULL,5,NULL,476
# 8. Sentence (or sentence MD5).
1636881210,f22bc56aad1bc122b31322a6a09ec2f6,38,0,Fu-1F.01,NULL,Анечка совсем не хотела есть суп%2C потому что терпеть не могло вареный луком. 
# 8. Question (NULL if none)..
# 9. Answer.
# 10. Whether or not answer was correct (NULL if N/A).
# 11. Time taken to answer..
1636881210,f22bc56aad1bc122b31322a6a09ec2f6,38,0,Fu-1F.01,NULL,NULL,5,NULL,550
# 8. Sentence (or sentence MD5).
1636881210,f22bc56aad1bc122b31322a6a09ec2f6,9,0,id.zast.pass.b,1,Хватит учить Пашу писать стихи – заставляешь бумагу мараться почем зря.
# 8. Question (NULL if none)..
# 9. Answer.
# 10. Whether or not answer was correct (NULL if N/A).
# 11. Time taken to answer..
1636881210,f22bc56aad1bc122b31322a6a09ec2f6,9,0,id.zast.pass.b,1,NULL,5,NULL,493
# 8. Sentence (or sentence MD5).
1636881210,f22bc56aad1bc122b31322a6a09ec2f6,24,0,Fg-2F.01,NULL,Алёше уже не нужны костыли – его нога совсем зажила. 
# 8. Question (NULL if none)..
# 9. Answer.
# 10. Whether or not answer was correct (NULL if N/A).
# 11. Time taken to answer..
1636881210,f22bc56aad1bc122b31322a6a09ec2f6,24,0,Fg-2F.01,NULL,NULL,5,NULL,507
# 8. Sentence (or sentence MD5).
1636881210,f22bc56aad1bc122b31322a6a09ec2f6,41,0,Fu-2F.02,NULL,Если мой рассказ тебя не убедишь%2C поговори с Алисой – она отлично разбирается в людях. 
# 8. Question (NULL if none)..
# 9. Answer.
# 10. Whether or not answer was correct (NULL if N/A).
# 11. Time taken to answer..
1636881210,f22bc56aad1bc122b31322a6a09ec2f6,41,0,Fu-2F.02,NULL,NULL,5,NULL,478
# 8. Sentence (or sentence MD5).
1636881210,f22bc56aad1bc122b31322a6a09ec2f6,22,0,Fg-1F.01,NULL,Если бы не дождь с градом%2C я бы пошла сегодня гулять в Петровский парк. 
# 8. Question (NULL if none)..
# 9. Answer.
# 10. Whether or not answer was correct (NULL if N/A).
# 11. Time taken to answer..
1636881210,f22bc56aad1bc122b31322a6a09ec2f6,22,0,Fg-1F.01,NULL,NULL,5,NULL,471
# 8. Sentence (or sentence MD5).
1636881210,f22bc56aad1bc122b31322a6a09ec2f6,51,0,Fu-7F.02,NULL,Дойдя до вертолётной площадки%2C мы повернулись назад и увидели закат холодное осеннего солнце.
# 8. Question (NULL if none)..
# 9. Answer.
# 10. Whether or not answer was correct (NULL if N/A).
# 11. Time taken to answer..
1636881210,f22bc56aad1bc122b31322a6a09ec2f6,51,0,Fu-7F.02,NULL,NULL,5,NULL,546
# 8. Sentence (or sentence MD5).
1636881210,f22bc56aad1bc122b31322a6a09ec2f6,33,0,Fg-6F.02,NULL,Нет ничего красивее блестящих на солнце луж.
# 8. Question (NULL if none)..
# 9. Answer.
# 10. Whether or not answer was correct (NULL if N/A).
# 11. Time taken to answer..
1636881210,f22bc56aad1bc122b31322a6a09ec2f6,33,0,Fg-6F.02,NULL,NULL,5,NULL,530
# 8. Sentence (or sentence MD5).
1636881210,f22bc56aad1bc122b31322a6a09ec2f6,40,0,Fu-2F.01,NULL,У меня никогда не было музыкальных способностей%2C но я отличалась склонностью рисованием. 
# 8. Question (NULL if none)..
# 9. Answer.
# 10. Whether or not answer was correct (NULL if N/A).
# 11. Time taken to answer..
1636881210,f22bc56aad1bc122b31322a6a09ec2f6,40,0,Fu-2F.01,NULL,NULL,5,NULL,499
# 8. Sentence (or sentence MD5).
1636881210,f22bc56aad1bc122b31322a6a09ec2f6,25,0,Fg-2F.02,NULL,Сколько он ни пытался%2C не даётся ему сербский язык – то ли дело итальянский.
# 8. Question (NULL if none)..
# 9. Answer.
# 10. Whether or not answer was correct (NULL if N/A).
# 11. Time taken to answer..
1636881210,f22bc56aad1bc122b31322a6a09ec2f6,25,0,Fg-2F.02,NULL,NULL,5,NULL,488
# 8. Sentence (or sentence MD5).
1636881210,f22bc56aad1bc122b31322a6a09ec2f6,48,0,Fu-6F.01,NULL,На стене висел акварельные этюды%2C исчерканные углевым карандашом для придания глубины%2C карта Израиля и круглыми часы. 
# 8. Question (NULL if none)..
# 9. Answer.
# 10. Whether or not answer was correct (NULL if N/A).
# 11. Time taken to answer..
1636881210,f22bc56aad1bc122b31322a6a09ec2f6,48,0,Fu-6F.01,NULL,NULL,5,NULL,495
# 8. Sentence (or sentence MD5).
1636881210,f22bc56aad1bc122b31322a6a09ec2f6,15,0,id.pozv.act.b,3,В команде проекта собрались отличные компетентные люди%2C но отсутствие чётких указаний от руководителя не позволяло льду тронуться.
# 8. Question (NULL if none)..
# 9. Answer.
# 10. Whether or not answer was correct (NULL if N/A).
# 11. Time taken to answer..
1636881210,f22bc56aad1bc122b31322a6a09ec2f6,15,0,id.pozv.act.b,3,NULL,5,NULL,596
# 8. Sentence (or sentence MD5).
1636881210,f22bc56aad1bc122b31322a6a09ec2f6,28,0,Fg-4F.01,NULL,Химия так плохо давалась Насте%2C что пришлось нанять репетитора – студента 4 курса МГУ. 
# 8. Question (NULL if none)..
# 9. Answer.
# 10. Whether or not answer was correct (NULL if N/A).
# 11. Time taken to answer..
1636881210,f22bc56aad1bc122b31322a6a09ec2f6,28,0,Fg-4F.01,NULL,NULL,5,NULL,532
# 8. Sentence (or sentence MD5).
1636881210,f22bc56aad1bc122b31322a6a09ec2f6,42,0,Fu-3F.01,NULL,Дома холодные полы%2C поэтому бабушка настаивает%2C чтобы гости наденут тапочки. 
# 8. Question (NULL if none)..
# 9. Answer.
# 10. Whether or not answer was correct (NULL if N/A).
# 11. Time taken to answer..
1636881210,f22bc56aad1bc122b31322a6a09ec2f6,42,0,Fu-3F.01,NULL,NULL,5,NULL,488
# 8. Sentence (or sentence MD5).
1636881210,f22bc56aad1bc122b31322a6a09ec2f6,32,0,Fg-6F.01,NULL,Никто не заставляет Витю просыпаться в шесть утра%2C он сам поднимается и идет на пробежку. 
# 8. Question (NULL if none)..
# 9. Answer.
# 10. Whether or not answer was correct (NULL if N/A).
# 11. Time taken to answer..
1636881210,f22bc56aad1bc122b31322a6a09ec2f6,32,0,Fg-6F.01,NULL,NULL,5,NULL,540
# 8. Sentence (or sentence MD5).
1636881210,f22bc56aad1bc122b31322a6a09ec2f6,53,0,Fu-8F.02,NULL,Как настоящая творческая личность%2C Никитка скоро украсил обои в прихожей при помощью своих новых фломастерами.
# 8. Question (NULL if none)..
# 9. Answer.
# 10. Whether or not answer was correct (NULL if N/A).
# 11. Time taken to answer..
1636881210,f22bc56aad1bc122b31322a6a09ec2f6,53,0,Fu-8F.02,NULL,NULL,5,NULL,464
# 8. Sentence (or sentence MD5).
1636881210,f22bc56aad1bc122b31322a6a09ec2f6,36,0,Fg-8F.01,NULL,Папа купил лимонад и килограмм креветок – вечером будет маленькое застолье.
# 8. Question (NULL if none)..
# 9. Answer.
# 10. Whether or not answer was correct (NULL if N/A).
# 11. Time taken to answer..
1636881210,f22bc56aad1bc122b31322a6a09ec2f6,36,0,Fg-8F.01,NULL,NULL,5,NULL,500
# 8. Sentence (or sentence MD5).
1636881210,f22bc56aad1bc122b31322a6a09ec2f6,52,0,Fu-8F.01,NULL,Нике явно не нравилось вечеринке%2C у неё болела голова и она поскорее хотела пойдёт домой.
# 8. Question (NULL if none)..
# 9. Answer.
# 10. Whether or not answer was correct (NULL if N/A).
# 11. Time taken to answer..
1636881210,f22bc56aad1bc122b31322a6a09ec2f6,52,0,Fu-8F.01,NULL,NULL,5,NULL,480
# 8. Sentence (or sentence MD5).
1636881210,f22bc56aad1bc122b31322a6a09ec2f6,34,0,Fg-7F.01,NULL,Квартира в пригороде Москвы дешевле%2C но ежедневно добираться оттуда на работу – большая трата времени. 
# 8. Question (NULL if none)..
# 9. Answer.
# 10. Whether or not answer was correct (NULL if N/A).
# 11. Time taken to answer..
1636881210,f22bc56aad1bc122b31322a6a09ec2f6,34,0,Fg-7F.01,NULL,NULL,5,NULL,452
# 8. Sentence (or sentence MD5).
1636881210,f22bc56aad1bc122b31322a6a09ec2f6,45,0,Fu-4F.02,NULL,Один наушник нашлись в углу прихожей%2C а другой – под тумбочке. 
# 8. Question (NULL if none)..
# 9. Answer.
# 10. Whether or not answer was correct (NULL if N/A).
# 11. Time taken to answer..
1636881210,f22bc56aad1bc122b31322a6a09ec2f6,45,0,Fu-4F.02,NULL,NULL,5,NULL,487
# 8. Sentence (or sentence MD5).
1636881210,f22bc56aad1bc122b31322a6a09ec2f6,20,0,id.pomo.pass.a,4,Новые запретительные меры помогли гайкам закрутиться ещё сильнее. 
# 8. Question (NULL if none)..
# 9. Answer.
# 10. Whether or not answer was correct (NULL if N/A).
# 11. Time taken to answer..
1636881210,f22bc56aad1bc122b31322a6a09ec2f6,20,0,id.pomo.pass.a,4,NULL,5,NULL,470
# 8. Sentence (or sentence MD5).
1636881210,f22bc56aad1bc122b31322a6a09ec2f6,23,0,Fg-1F.02,NULL,Меня пригласили на выставку%2C посвященную русским супрематистам%2C но мне совсем не хотелось идти. 
# 8. Question (NULL if none)..
# 9. Answer.
# 10. Whether or not answer was correct (NULL if N/A).
# 11. Time taken to answer..
1636881210,f22bc56aad1bc122b31322a6a09ec2f6,23,0,Fg-1F.02,NULL,NULL,5,NULL,509
# 8. Sentence (or sentence MD5).
1636881210,f22bc56aad1bc122b31322a6a09ec2f6,49,0,Fu-6F.02,NULL,Виктор опять не принес сочинение на урок литературы%2C и учитель снова начал за отчитывать его возмутительное неприлежание.
# 8. Question (NULL if none)..
# 9. Answer.
# 10. Whether or not answer was correct (NULL if N/A).
# 11. Time taken to answer..
1636881210,f22bc56aad1bc122b31322a6a09ec2f6,49,0,Fu-6F.02,NULL,NULL,5,NULL,444
# 8. Sentence (or sentence MD5).
1636881210,f22bc56aad1bc122b31322a6a09ec2f6,37,0,Fg-8F.02,NULL,Каждый раз%2C когда я прохожу мимо памятника Ленину%2C мне кажется%2C что он шатается.
# 8. Question (NULL if none)..
# 9. Answer.
# 10. Whether or not answer was correct (NULL if N/A).
# 11. Time taken to answer..
1636881210,f22bc56aad1bc122b31322a6a09ec2f6,37,0,Fg-8F.02,NULL,NULL,5,NULL,495
# 8. Sentence (or sentence MD5).
1636881210,f22bc56aad1bc122b31322a6a09ec2f6,47,0,Fu-5F.02,NULL,Рыбу здесь запрещено ловил сетями и пугал бы взрывчаткой.
# 8. Question (NULL if none)..
# 9. Answer.
# 10. Whether or not answer was correct (NULL if N/A).
# 11. Time taken to answer..
1636881210,f22bc56aad1bc122b31322a6a09ec2f6,47,0,Fu-5F.02,NULL,NULL,5,NULL,497
# 8. Sentence (or sentence MD5).
1636881210,f22bc56aad1bc122b31322a6a09ec2f6,35,0,Fg-7F.02,NULL,Новосибирск оказался вовсе не таким%2C каким Лиза его себе представляла.
# 8. Question (NULL if none)..
# 9. Answer.
# 10. Whether or not answer was correct (NULL if N/A).
# 11. Time taken to answer..
1636881210,f22bc56aad1bc122b31322a6a09ec2f6,35,0,Fg-7F.02,NULL,NULL,5,NULL,452
# 8. Sentence (or sentence MD5).
1636881210,f22bc56aad1bc122b31322a6a09ec2f6,46,0,Fu-5F.01,NULL,Ты правда научился читать всего в три лет?
# 8. Question (NULL if none)..
# 9. Answer.
# 10. Whether or not answer was correct (NULL if N/A).
# 11. Time taken to answer..
1636881210,f22bc56aad1bc122b31322a6a09ec2f6,46,0,Fu-5F.01,NULL,NULL,5,NULL,521
# 8. Sentence (or sentence MD5).
1636881210,f22bc56aad1bc122b31322a6a09ec2f6,29,0,Fg-4F.02,NULL,Римма боится собак%2C да так%2C что может в обморок упасть%2C если Рекс на неё зарычит.
# 8. Question (NULL if none)..
# 9. Answer.
# 10. Whether or not answer was correct (NULL if N/A).
# 11. Time taken to answer..
1636881210,f22bc56aad1bc122b31322a6a09ec2f6,29,0,Fg-4F.02,NULL,NULL,5,NULL,491
# 8. Sentence (or sentence MD5).
1636881210,f22bc56aad1bc122b31322a6a09ec2f6,50,0,Fu-7F.01,NULL,Со второго ряда уже было лектора плохо слышный%2C а до задних парт доходило еле-еле.
# 8. Question (NULL if none)..
# 9. Answer.
# 10. Whether or not answer was correct (NULL if N/A).
# 11. Time taken to answer..
1636881210,f22bc56aad1bc122b31322a6a09ec2f6,50,0,Fu-7F.01,NULL,NULL,5,NULL,459
# 8. Sentence (or sentence MD5).
1636881210,f22bc56aad1bc122b31322a6a09ec2f6,10,0,id.mesh.act.a,2,Мой день рождения проходил отлично%2C однако праздник не мешал кошкам скрести на душе. 
# 8. Question (NULL if none)..
# 9. Answer.
# 10. Whether or not answer was correct (NULL if N/A).
# 11. Time taken to answer..
1636881210,f22bc56aad1bc122b31322a6a09ec2f6,10,0,id.mesh.act.a,2,NULL,5,NULL,510
# 8. Sentence (or sentence MD5).
1636881210,f22bc56aad1bc122b31322a6a09ec2f6,54,0,hiddenCompletionCode,NULL,LIR5507172720
#
# Results on Sun, 14 Nov 2021 09:17:27 GMT
# USER AGENT: Mozilla/5.0 (Macintosh; Intel Mac OS X 10_15_7) AppleWebKit/605.1.15 (KHTML, like Gecko) Version/15.1 Safari/605.1.15
# Design number was non-random = 4
#
# Columns below this comment are as follows:
# 1. Results reception time.
# 2. MD5 hash of participant's IP address.
# 3. Controller name.
# 4. Order number of item.
# 5. Inner element number.
# 6. Label.
# 7. Latin Square Group.
# 8. Sentence (or sentence MD5).
1636881447,f22bc56aad1bc122b31322a6a09ec2f6,4,0,practice,NULL,This is a practice sentence%2C which you should rate a 4.
# 8. Question (NULL if none)..
# 9. Answer.
# 10. Whether or not answer was correct (NULL if N/A).
# 11. Time taken to answer..
1636881447,f22bc56aad1bc122b31322a6a09ec2f6,4,0,practice,NULL,NULL,4,NULL,1392
# 8. Sentence (or sentence MD5).
1636881447,f22bc56aad1bc122b31322a6a09ec2f6,53,0,Fu-8F.02,8,Как настоящая творческая личность%2C Никитка скоро украсил обои в прихожей при помощью своих новых фломастерами.
# 8. Question (NULL if none)..
# 9. Answer.
# 10. Whether or not answer was correct (NULL if N/A).
# 11. Time taken to answer..
1636881447,f22bc56aad1bc122b31322a6a09ec2f6,53,0,Fu-8F.02,8,NULL,5,NULL,4019
# 8. Sentence (or sentence MD5).
1636881447,f22bc56aad1bc122b31322a6a09ec2f6,41,0,Fu-2F.02,2,Если мой рассказ тебя не убедишь%2C поговори с Алисой – она отлично разбирается в людях. 
# 8. Question (NULL if none)..
# 9. Answer.
# 10. Whether or not answer was correct (NULL if N/A).
# 11. Time taken to answer..
1636881447,f22bc56aad1bc122b31322a6a09ec2f6,41,0,Fu-2F.02,2,NULL,5,NULL,460
# 8. Sentence (or sentence MD5).
1636881447,f22bc56aad1bc122b31322a6a09ec2f6,29,0,Fg-4F.02,4,Римма боится собак%2C да так%2C что может в обморок упасть%2C если Рекс на неё зарычит.
# 8. Question (NULL if none)..
# 9. Answer.
# 10. Whether or not answer was correct (NULL if N/A).
# 11. Time taken to answer..
1636881447,f22bc56aad1bc122b31322a6a09ec2f6,29,0,Fg-4F.02,4,NULL,5,NULL,502
# 8. Sentence (or sentence MD5).
1636881447,f22bc56aad1bc122b31322a6a09ec2f6,50,0,Fu-7F.01,7,Со второго ряда уже было лектора плохо слышный%2C а до задних парт доходило еле-еле.
# 8. Question (NULL if none)..
# 9. Answer.
# 10. Whether or not answer was correct (NULL if N/A).
# 11. Time taken to answer..
1636881447,f22bc56aad1bc122b31322a6a09ec2f6,50,0,Fu-7F.01,7,NULL,5,NULL,453
# 8. Sentence (or sentence MD5).
1636881447,f22bc56aad1bc122b31322a6a09ec2f6,30,0,Fg-5F.01,5,На поле рядом с моим домом уже давно ничего не выращивают. 
# 8. Question (NULL if none)..
# 9. Answer.
# 10. Whether or not answer was correct (NULL if N/A).
# 11. Time taken to answer..
1636881447,f22bc56aad1bc122b31322a6a09ec2f6,30,0,Fg-5F.01,5,NULL,5,NULL,453
# 8. Sentence (or sentence MD5).
1636881447,f22bc56aad1bc122b31322a6a09ec2f6,38,0,Fu-1F.01,1,Анечка совсем не хотела есть суп%2C потому что терпеть не могло вареный луком. 
# 8. Question (NULL if none)..
# 9. Answer.
# 10. Whether or not answer was correct (NULL if N/A).
# 11. Time taken to answer..
1636881447,f22bc56aad1bc122b31322a6a09ec2f6,38,0,Fu-1F.01,1,NULL,5,NULL,471
# 8. Sentence (or sentence MD5).
1636881447,f22bc56aad1bc122b31322a6a09ec2f6,33,0,Fg-6F.02,6,Нет ничего красивее блестящих на солнце луж.
# 8. Question (NULL if none)..
# 9. Answer.
# 10. Whether or not answer was correct (NULL if N/A).
# 11. Time taken to answer..
1636881447,f22bc56aad1bc122b31322a6a09ec2f6,33,0,Fg-6F.02,6,NULL,5,NULL,494
# 8. Sentence (or sentence MD5).
1636881447,f22bc56aad1bc122b31322a6a09ec2f6,10,0,id.mesh.act.a,3,Мой день рождения проходил отлично%2C однако праздник не мешал кошкам скрести на душе. 
# 8. Question (NULL if none)..
# 9. Answer.
# 10. Whether or not answer was correct (NULL if N/A).
# 11. Time taken to answer..
1636881447,f22bc56aad1bc122b31322a6a09ec2f6,10,0,id.mesh.act.a,3,NULL,5,NULL,459
# 8. Sentence (or sentence MD5).
1636881447,f22bc56aad1bc122b31322a6a09ec2f6,54,0,hiddenCompletionCode,NULL,LIR61390907
#
# Results on Sun, 14 Nov 2021 09:19:24 GMT
# USER AGENT: Mozilla/5.0 (Macintosh; Intel Mac OS X 10_15_7) AppleWebKit/605.1.15 (KHTML, like Gecko) Version/15.1 Safari/605.1.15
# Design number was non-random = 5
#
# Columns below this comment are as follows:
# 1. Results reception time.
# 2. MD5 hash of participant's IP address.
# 3. Controller name.
# 4. Order number of item.
# 5. Inner element number.
# 6. Label.
# 7. Latin Square Group.
# 8. Sentence (or sentence MD5).
1636881564,f22bc56aad1bc122b31322a6a09ec2f6,4,0,practice,NULL,This is a practice sentence%2C which you should rate a 4.
# 8. Question (NULL if none)..
# 9. Answer.
# 10. Whether or not answer was correct (NULL if N/A).
# 11. Time taken to answer..
1636881564,f22bc56aad1bc122b31322a6a09ec2f6,4,0,practice,NULL,NULL,2,NULL,720
# 8. Sentence (or sentence MD5).
1636881564,f22bc56aad1bc122b31322a6a09ec2f6,23,0,Fg-1F.02,9,Меня пригласили на выставку%2C посвященную русским супрематистам%2C но мне совсем не хотелось идти. 
# 8. Question (NULL if none)..
# 9. Answer.
# 10. Whether or not answer was correct (NULL if N/A).
# 11. Time taken to answer..
1636881564,f22bc56aad1bc122b31322a6a09ec2f6,23,0,Fg-1F.02,9,NULL,4,NULL,1125
# 8. Sentence (or sentence MD5).
1636881564,f22bc56aad1bc122b31322a6a09ec2f6,44,0,Fu-4F.01,20,Дедлайн стремительно приближался%2C а я успевает сделать примерно ничего. 
# 8. Question (NULL if none)..
# 9. Answer.
# 10. Whether or not answer was correct (NULL if N/A).
# 11. Time taken to answer..
1636881564,f22bc56aad1bc122b31322a6a09ec2f6,44,0,Fu-4F.01,20,NULL,4,NULL,488
# 8. Sentence (or sentence MD5).
1636881564,f22bc56aad1bc122b31322a6a09ec2f6,11,0,id.mesh.act.b,3,Никакие утешения не мешали слезам литься в три ручья – потерялась Анина любимая плюшевая собачка.
# 8. Question (NULL if none)..
# 9. Answer.
# 10. Whether or not answer was correct (NULL if N/A).
# 11. Time taken to answer..
1636881564,f22bc56aad1bc122b31322a6a09ec2f6,11,0,id.mesh.act.b,3,NULL,4,NULL,673
# 8. Sentence (or sentence MD5).
1636881564,f22bc56aad1bc122b31322a6a09ec2f6,28,0,Fg-4F.01,12,Химия так плохо давалась Насте%2C что пришлось нанять репетитора – студента 4 курса МГУ. 
# 8. Question (NULL if none)..
# 9. Answer.
# 10. Whether or not answer was correct (NULL if N/A).
# 11. Time taken to answer..
1636881564,f22bc56aad1bc122b31322a6a09ec2f6,28,0,Fg-4F.01,12,NULL,4,NULL,451
# 8. Sentence (or sentence MD5).
1636881564,f22bc56aad1bc122b31322a6a09ec2f6,40,0,Fu-2F.01,18,У меня никогда не было музыкальных способностей%2C но я отличалась склонностью рисованием. 
# 8. Question (NULL if none)..
# 9. Answer.
# 10. Whether or not answer was correct (NULL if N/A).
# 11. Time taken to answer..
1636881564,f22bc56aad1bc122b31322a6a09ec2f6,40,0,Fu-2F.01,18,NULL,4,NULL,492
# 8. Sentence (or sentence MD5).
1636881564,f22bc56aad1bc122b31322a6a09ec2f6,16,0,id.pozv.pass.a,6,Серёжка думал%2C поселить ли у себя в комнате домашнюю жабу%2C но внезапное появление отца позволило её судьбе решиться мгновенно – она была выдворена на улицу.
# 8. Question (NULL if none)..
# 9. Answer.
# 10. Whether or not answer was correct (NULL if N/A).
# 11. Time taken to answer..
1636881564,f22bc56aad1bc122b31322a6a09ec2f6,16,0,id.pozv.pass.a,6,NULL,4,NULL,880
# 8. Sentence (or sentence MD5).
1636881564,f22bc56aad1bc122b31322a6a09ec2f6,35,0,Fg-7F.02,15,Новосибирск оказался вовсе не таким%2C каким Лиза его себе представляла.
# 8. Question (NULL if none)..
# 9. Answer.
# 10. Whether or not answer was correct (NULL if N/A).
# 11. Time taken to answer..
1636881564,f22bc56aad1bc122b31322a6a09ec2f6,35,0,Fg-7F.02,15,NULL,4,NULL,1117
# 8. Sentence (or sentence MD5).
1636881564,f22bc56aad1bc122b31322a6a09ec2f6,39,0,Fu-1F.02,17,Все были взволнованы после ухода Петра Степановича%2C даже Лизе. 
# 8. Question (NULL if none)..
# 9. Answer.
# 10. Whether or not answer was correct (NULL if N/A).
# 11. Time taken to answer..
1636881564,f22bc56aad1bc122b31322a6a09ec2f6,39,0,Fu-1F.02,17,NULL,4,NULL,534
# 8. Sentence (or sentence MD5).
1636881564,f22bc56aad1bc122b31322a6a09ec2f6,12,0,id.mesh.pass.a,4,Хорошее воспитание не мешало грехам водиться за Аркашей. 
# 8. Question (NULL if none)..
# 9. Answer.
# 10. Whether or not answer was correct (NULL if N/A).
# 11. Time taken to answer..
1636881564,f22bc56aad1bc122b31322a6a09ec2f6,12,0,id.mesh.pass.a,4,NULL,4,NULL,479
# 8. Sentence (or sentence MD5).
1636881564,f22bc56aad1bc122b31322a6a09ec2f6,36,0,Fg-8F.01,16,Папа купил лимонад и килограмм креветок – вечером будет маленькое застолье.
# 8. Question (NULL if none)..
# 9. Answer.
# 10. Whether or not answer was correct (NULL if N/A).
# 11. Time taken to answer..
1636881564,f22bc56aad1bc122b31322a6a09ec2f6,36,0,Fg-8F.01,16,NULL,4,NULL,445
# 8. Sentence (or sentence MD5).
1636881564,f22bc56aad1bc122b31322a6a09ec2f6,48,0,Fu-6F.01,22,На стене висел акварельные этюды%2C исчерканные углевым карандашом для придания глубины%2C карта Израиля и круглыми часы. 
# 8. Question (NULL if none)..
# 9. Answer.
# 10. Whether or not answer was correct (NULL if N/A).
# 11. Time taken to answer..
1636881564,f22bc56aad1bc122b31322a6a09ec2f6,48,0,Fu-6F.01,22,NULL,4,NULL,475
# 8. Sentence (or sentence MD5).
1636881564,f22bc56aad1bc122b31322a6a09ec2f6,20,0,id.pomo.pass.a,8,Новые запретительные меры помогли гайкам закрутиться ещё сильнее. 
# 8. Question (NULL if none)..
# 9. Answer.
# 10. Whether or not answer was correct (NULL if N/A).
# 11. Time taken to answer..
1636881564,f22bc56aad1bc122b31322a6a09ec2f6,20,0,id.pomo.pass.a,8,NULL,4,NULL,429
# 8. Sentence (or sentence MD5).
1636881564,f22bc56aad1bc122b31322a6a09ec2f6,32,0,Fg-6F.01,14,Никто не заставляет Витю просыпаться в шесть утра%2C он сам поднимается и идет на пробежку. 
# 8. Question (NULL if none)..
# 9. Answer.
# 10. Whether or not answer was correct (NULL if N/A).
# 11. Time taken to answer..
1636881564,f22bc56aad1bc122b31322a6a09ec2f6,32,0,Fg-6F.01,14,NULL,4,NULL,417
# 8. Sentence (or sentence MD5).
1636881564,f22bc56aad1bc122b31322a6a09ec2f6,43,0,Fu-3F.02,19,Больше всего маленький Ваня боялся темноты%2C и поэтому света засыпал без никогда. 
# 8. Question (NULL if none)..
# 9. Answer.
# 10. Whether or not answer was correct (NULL if N/A).
# 11. Time taken to answer..
1636881564,f22bc56aad1bc122b31322a6a09ec2f6,43,0,Fu-3F.02,19,NULL,4,NULL,385
# 8. Sentence (or sentence MD5).
1636881564,f22bc56aad1bc122b31322a6a09ec2f6,19,0,id.pomo.act.b,7,Алёна была в ярости%2C когда узнала%2C где муж побывал той ночью%2C но искренние извинения и пышный букет пионов помогли гневу смениться на милость.
# 8. Question (NULL if none)..
# 9. Answer.
# 10. Whether or not answer was correct (NULL if N/A).
# 11. Time taken to answer..
1636881564,f22bc56aad1bc122b31322a6a09ec2f6,19,0,id.pomo.act.b,7,NULL,4,NULL,393
# 8. Sentence (or sentence MD5).
1636881564,f22bc56aad1bc122b31322a6a09ec2f6,27,0,Fg-3F.02,11,Курины уехали на дачу на две недели%2C и до них теперь не дозвонишься.
# 8. Question (NULL if none)..
# 9. Answer.
# 10. Whether or not answer was correct (NULL if N/A).
# 11. Time taken to answer..
1636881564,f22bc56aad1bc122b31322a6a09ec2f6,27,0,Fg-3F.02,11,NULL,4,NULL,408
# 8. Sentence (or sentence MD5).
1636881564,f22bc56aad1bc122b31322a6a09ec2f6,51,0,Fu-7F.02,23,Дойдя до вертолётной площадки%2C мы повернулись назад и увидели закат холодное осеннего солнце.
# 8. Question (NULL if none)..
# 9. Answer.
# 10. Whether or not answer was correct (NULL if N/A).
# 11. Time taken to answer..
1636881564,f22bc56aad1bc122b31322a6a09ec2f6,51,0,Fu-7F.02,23,NULL,4,NULL,389
# 8. Sentence (or sentence MD5).
1636881564,f22bc56aad1bc122b31322a6a09ec2f6,15,0,id.pozv.act.b,5,В команде проекта собрались отличные компетентные люди%2C но отсутствие чётких указаний от руководителя не позволяло льду тронуться.
# 8. Question (NULL if none)..
# 9. Answer.
# 10. Whether or not answer was correct (NULL if N/A).
# 11. Time taken to answer..
1636881564,f22bc56aad1bc122b31322a6a09ec2f6,15,0,id.pozv.act.b,5,NULL,4,NULL,387
# 8. Sentence (or sentence MD5).
1636881564,f22bc56aad1bc122b31322a6a09ec2f6,31,0,Fg-5F.02,13,Девчонки столпились у окна%2C чтобы посмотреть на двойную радугу%2C но никак не могли её разглядеть.
# 8. Question (NULL if none)..
# 9. Answer.
# 10. Whether or not answer was correct (NULL if N/A).
# 11. Time taken to answer..
1636881564,f22bc56aad1bc122b31322a6a09ec2f6,31,0,Fg-5F.02,13,NULL,4,NULL,409
# 8. Sentence (or sentence MD5).
1636881564,f22bc56aad1bc122b31322a6a09ec2f6,47,0,Fu-5F.02,21,Рыбу здесь запрещено ловил сетями и пугал бы взрывчаткой.
# 8. Question (NULL if none)..
# 9. Answer.
# 10. Whether or not answer was correct (NULL if N/A).
# 11. Time taken to answer..
1636881564,f22bc56aad1bc122b31322a6a09ec2f6,47,0,Fu-5F.02,21,NULL,4,NULL,376
# 8. Sentence (or sentence MD5).
1636881564,f22bc56aad1bc122b31322a6a09ec2f6,7,0,id.zast.act.b,1,Напряженное молчание заставляло атмосферу сгущаться сильнее и сильнее. 
# 8. Question (NULL if none)..
# 9. Answer.
# 10. Whether or not answer was correct (NULL if N/A).
# 11. Time taken to answer..
1636881564,f22bc56aad1bc122b31322a6a09ec2f6,7,0,id.zast.act.b,1,NULL,4,NULL,425
# 8. Sentence (or sentence MD5).
1636881564,f22bc56aad1bc122b31322a6a09ec2f6,24,0,Fg-2F.01,10,Алёше уже не нужны костыли – его нога совсем зажила. 
# 8. Question (NULL if none)..
# 9. Answer.
# 10. Whether or not answer was correct (NULL if N/A).
# 11. Time taken to answer..
1636881564,f22bc56aad1bc122b31322a6a09ec2f6,24,0,Fg-2F.01,10,NULL,4,NULL,412
# 8. Sentence (or sentence MD5).
1636881564,f22bc56aad1bc122b31322a6a09ec2f6,52,0,Fu-8F.01,24,Нике явно не нравилось вечеринке%2C у неё болела голова и она поскорее хотела пойдёт домой.
# 8. Question (NULL if none)..
# 9. Answer.
# 10. Whether or not answer was correct (NULL if N/A).
# 11. Time taken to answer..
1636881564,f22bc56aad1bc122b31322a6a09ec2f6,52,0,Fu-8F.01,24,NULL,4,NULL,394
# 8. Sentence (or sentence MD5).
1636881564,f22bc56aad1bc122b31322a6a09ec2f6,8,0,id.zast.pass.a,2,Приход в администрацию нового руководства заставил декорации смениться.
# 8. Question (NULL if none)..
# 9. Answer.
# 10. Whether or not answer was correct (NULL if N/A).
# 11. Time taken to answer..
1636881564,f22bc56aad1bc122b31322a6a09ec2f6,8,0,id.zast.pass.a,2,NULL,4,NULL,372
# 8. Sentence (or sentence MD5).
1636881564,f22bc56aad1bc122b31322a6a09ec2f6,54,0,hiddenCompletionCode,NULL,LIR3064412092
#
# Results on Sun, 14 Nov 2021 09:40:23 GMT
# USER AGENT: Mozilla/5.0 (Macintosh; Intel Mac OS X 10_15_7) AppleWebKit/605.1.15 (KHTML, like Gecko) Version/15.1 Safari/605.1.15
# Design number was non-random = 6
#
# Columns below this comment are as follows:
# 1. Results reception time.
# 2. MD5 hash of participant's IP address.
# 3. Controller name.
# 4. Order number of item.
# 5. Inner element number.
# 6. Label.
# 7. Latin Square Group.
# 8. Sentence (or sentence MD5).
1636882823,f22bc56aad1bc122b31322a6a09ec2f6,4,0,practice1,NULL,Андрей опоздал на поезд и очень расстроился.
# 8. Question (NULL if none)..
# 9. Answer.
# 10. Whether or not answer was correct (NULL if N/A).
# 11. Time taken to answer..
1636882823,f22bc56aad1bc122b31322a6a09ec2f6,4,0,practice1,NULL,NULL,7,NULL,2155
# 8. Sentence (or sentence MD5).
1636882823,f22bc56aad1bc122b31322a6a09ec2f6,6,0,practice2,NULL,Буйный заросли крапива выросла домом за.
# 8. Question (NULL if none)..
# 9. Answer.
# 10. Whether or not answer was correct (NULL if N/A).
# 11. Time taken to answer..
1636882823,f22bc56aad1bc122b31322a6a09ec2f6,6,0,practice2,NULL,NULL,1,NULL,4343
# 8. Sentence (or sentence MD5).
1636882823,f22bc56aad1bc122b31322a6a09ec2f6,51,0,Fu-6F.02,22,Виктор опять не принес сочинение на урок литературы%2C и учитель снова начал за отчитывать его возмутительное неприлежание.
# 8. Question (NULL if none)..
# 9. Answer.
# 10. Whether or not answer was correct (NULL if N/A).
# 11. Time taken to answer..
1636882823,f22bc56aad1bc122b31322a6a09ec2f6,51,0,Fu-6F.02,22,NULL,5,NULL,8340
# 8. Sentence (or sentence MD5).
1636882823,f22bc56aad1bc122b31322a6a09ec2f6,20,0,id.pomo.act.a,7,Следователи были в полном замешательстве%2C но рассказ очевидца помог всему встать на свои места. 
# 8. Question (NULL if none)..
# 9. Answer.
# 10. Whether or not answer was correct (NULL if N/A).
# 11. Time taken to answer..
1636882823,f22bc56aad1bc122b31322a6a09ec2f6,20,0,id.pomo.act.a,7,NULL,7,NULL,2585
# 8. Sentence (or sentence MD5).
1636882823,f22bc56aad1bc122b31322a6a09ec2f6,36,0,Fg-7F.01,15,Квартира в пригороде Москвы дешевле%2C но ежедневно добираться оттуда на работу – большая трата времени. 
# 8. Question (NULL if none)..
# 9. Answer.
# 10. Whether or not answer was correct (NULL if N/A).
# 11. Time taken to answer..
1636882823,f22bc56aad1bc122b31322a6a09ec2f6,36,0,Fg-7F.01,15,NULL,7,NULL,1245
# 8. Sentence (or sentence MD5).
1636882823,f22bc56aad1bc122b31322a6a09ec2f6,55,0,Fu-8F.02,24,Как настоящая творческая личность%2C Никитка скоро украсил обои в прихожей при помощью своих новых фломастерами.
# 8. Question (NULL if none)..
# 9. Answer.
# 10. Whether or not answer was correct (NULL if N/A).
# 11. Time taken to answer..
1636882823,f22bc56aad1bc122b31322a6a09ec2f6,55,0,Fu-8F.02,24,NULL,7,NULL,1328
# 8. Sentence (or sentence MD5).
1636882823,f22bc56aad1bc122b31322a6a09ec2f6,15,0,id.mesh.pass.b,4,Родительский контроль должен мешать головам детей забиваться чушью%2C которую они могут увидеть в интернете.
# 8. Question (NULL if none)..
# 9. Answer.
# 10. Whether or not answer was correct (NULL if N/A).
# 11. Time taken to answer..
1636882823,f22bc56aad1bc122b31322a6a09ec2f6,15,0,id.mesh.pass.b,4,NULL,7,NULL,1013
# 8. Sentence (or sentence MD5).
1636882823,f22bc56aad1bc122b31322a6a09ec2f6,24,0,Fg-1F.01,9,Если бы не дождь с градом%2C я бы пошла сегодня гулять в Петровский парк. 
# 8. Question (NULL if none)..
# 9. Answer.
# 10. Whether or not answer was correct (NULL if N/A).
# 11. Time taken to answer..
1636882823,f22bc56aad1bc122b31322a6a09ec2f6,24,0,Fg-1F.01,9,NULL,7,NULL,2385
# 8. Sentence (or sentence MD5).
1636882823,f22bc56aad1bc122b31322a6a09ec2f6,52,0,Fu-7F.01,23,Со второго ряда уже было лектора плохо слышный%2C а до задних парт доходило еле-еле.
# 8. Question (NULL if none)..
# 9. Answer.
# 10. Whether or not answer was correct (NULL if N/A).
# 11. Time taken to answer..
1636882823,f22bc56aad1bc122b31322a6a09ec2f6,52,0,Fu-7F.01,23,NULL,7,NULL,388
# 8. Sentence (or sentence MD5).
1636882823,f22bc56aad1bc122b31322a6a09ec2f6,23,0,id.pomo.pass.b,8,Дружелюбный настрой Костиных новых знакомых и бутылка хорошего полусухого вина помогли льду растопиться быстро и легко.
# 8. Question (NULL if none)..
# 9. Answer.
# 10. Whether or not answer was correct (NULL if N/A).
# 11. Time taken to answer..
1636882823,f22bc56aad1bc122b31322a6a09ec2f6,23,0,id.pomo.pass.b,8,NULL,7,NULL,193
# 8. Sentence (or sentence MD5).
1636882823,f22bc56aad1bc122b31322a6a09ec2f6,32,0,Fg-5F.01,13,На поле рядом с моим домом уже давно ничего не выращивают. 
# 8. Question (NULL if none)..
# 9. Answer.
# 10. Whether or not answer was correct (NULL if N/A).
# 11. Time taken to answer..
1636882823,f22bc56aad1bc122b31322a6a09ec2f6,32,0,Fg-5F.01,13,NULL,7,NULL,190
# 8. Sentence (or sentence MD5).
1636882823,f22bc56aad1bc122b31322a6a09ec2f6,43,0,Fu-2F.02,18,Если мой рассказ тебя не убедишь%2C поговори с Алисой – она отлично разбирается в людях. 
# 8. Question (NULL if none)..
# 9. Answer.
# 10. Whether or not answer was correct (NULL if N/A).
# 11. Time taken to answer..
1636882823,f22bc56aad1bc122b31322a6a09ec2f6,43,0,Fu-2F.02,18,NULL,7,NULL,208
# 8. Sentence (or sentence MD5).
1636882823,f22bc56aad1bc122b31322a6a09ec2f6,11,0,id.zast.pass.b,2,Хватит учить Пашу писать стихи – заставляешь бумагу мараться почем зря.
# 8. Question (NULL if none)..
# 9. Answer.
# 10. Whether or not answer was correct (NULL if N/A).
# 11. Time taken to answer..
1636882823,f22bc56aad1bc122b31322a6a09ec2f6,11,0,id.zast.pass.b,2,NULL,7,NULL,163
# 8. Sentence (or sentence MD5).
1636882823,f22bc56aad1bc122b31322a6a09ec2f6,28,0,Fg-3F.01,11,Мама надела сапоги%2C чёрное пальто%2C накинула на голову подаренный отцом шелковый платок и вышла во двор. 
# 8. Question (NULL if none)..
# 9. Answer.
# 10. Whether or not answer was correct (NULL if N/A).
# 11. Time taken to answer..
1636882823,f22bc56aad1bc122b31322a6a09ec2f6,28,0,Fg-3F.01,11,NULL,7,NULL,177
# 8. Sentence (or sentence MD5).
1636882823,f22bc56aad1bc122b31322a6a09ec2f6,40,0,Fu-1F.01,17,Анечка совсем не хотела есть суп%2C потому что терпеть не могло вареный луком. 
# 8. Question (NULL if none)..
# 9. Answer.
# 10. Whether or not answer was correct (NULL if N/A).
# 11. Time taken to answer..
1636882823,f22bc56aad1bc122b31322a6a09ec2f6,40,0,Fu-1F.01,17,NULL,7,NULL,177
# 8. Sentence (or sentence MD5).
1636882823,f22bc56aad1bc122b31322a6a09ec2f6,19,0,id.pozv.pass.b,6,Школьная директриса Лариса Эдуардовна была сторонницей индивидуального подхода к ученикам и не позволяла ярлыкам вешаться без разбора. 
# 8. Question (NULL if none)..
# 9. Answer.
# 10. Whether or not answer was correct (NULL if N/A).
# 11. Time taken to answer..
1636882823,f22bc56aad1bc122b31322a6a09ec2f6,19,0,id.pozv.pass.b,6,NULL,7,NULL,176
# 8. Sentence (or sentence MD5).
1636882823,f22bc56aad1bc122b31322a6a09ec2f6,27,0,Fg-2F.02,10,Сколько он ни пытался%2C не даётся ему сербский язык – то ли дело итальянский.
# 8. Question (NULL if none)..
# 9. Answer.
# 10. Whether or not answer was correct (NULL if N/A).
# 11. Time taken to answer..
1636882823,f22bc56aad1bc122b31322a6a09ec2f6,27,0,Fg-2F.02,10,NULL,7,NULL,162
# 8. Sentence (or sentence MD5).
1636882823,f22bc56aad1bc122b31322a6a09ec2f6,44,0,Fu-3F.01,19,Дома холодные полы%2C поэтому бабушка настаивает%2C чтобы гости наденут тапочки. 
# 8. Question (NULL if none)..
# 9. Answer.
# 10. Whether or not answer was correct (NULL if N/A).
# 11. Time taken to answer..
1636882823,f22bc56aad1bc122b31322a6a09ec2f6,44,0,Fu-3F.01,19,NULL,7,NULL,357
# 8. Sentence (or sentence MD5).
1636882823,f22bc56aad1bc122b31322a6a09ec2f6,8,0,id.zast.act.a,1,Очередной провал заставил почву уйти из-под ног молодого предпринимателя – выхода из ситуации не было никакого. 
# 8. Question (NULL if none)..
# 9. Answer.
# 10. Whether or not answer was correct (NULL if N/A).
# 11. Time taken to answer..
1636882823,f22bc56aad1bc122b31322a6a09ec2f6,8,0,id.zast.act.a,1,NULL,7,NULL,258
# 8. Sentence (or sentence MD5).
1636882823,f22bc56aad1bc122b31322a6a09ec2f6,35,0,Fg-6F.02,14,Нет ничего красивее блестящих на солнце луж.
# 8. Question (NULL if none)..
# 9. Answer.
# 10. Whether or not answer was correct (NULL if N/A).
# 11. Time taken to answer..
1636882823,f22bc56aad1bc122b31322a6a09ec2f6,35,0,Fg-6F.02,14,NULL,7,NULL,235
# 8. Sentence (or sentence MD5).
1636882823,f22bc56aad1bc122b31322a6a09ec2f6,48,0,Fu-5F.01,21,Ты правда научился читать всего в три лет?
# 8. Question (NULL if none)..
# 9. Answer.
# 10. Whether or not answer was correct (NULL if N/A).
# 11. Time taken to answer..
1636882823,f22bc56aad1bc122b31322a6a09ec2f6,48,0,Fu-5F.01,21,NULL,7,NULL,194
# 8. Sentence (or sentence MD5).
1636882823,f22bc56aad1bc122b31322a6a09ec2f6,12,0,id.mesh.act.a,3,Мой день рождения проходил отлично%2C однако праздник не мешал кошкам скрести на душе. 
# 8. Question (NULL if none)..
# 9. Answer.
# 10. Whether or not answer was correct (NULL if N/A).
# 11. Time taken to answer..
1636882823,f22bc56aad1bc122b31322a6a09ec2f6,12,0,id.mesh.act.a,3,NULL,7,NULL,196
# 8. Sentence (or sentence MD5).
1636882823,f22bc56aad1bc122b31322a6a09ec2f6,31,0,Fg-4F.02,12,Римма боится собак%2C да так%2C что может в обморок упасть%2C если Рекс на неё зарычит.
# 8. Question (NULL if none)..
# 9. Answer.
# 10. Whether or not answer was correct (NULL if N/A).
# 11. Time taken to answer..
1636882823,f22bc56aad1bc122b31322a6a09ec2f6,31,0,Fg-4F.02,12,NULL,7,NULL,213
# 8. Sentence (or sentence MD5).
1636882823,f22bc56aad1bc122b31322a6a09ec2f6,47,0,Fu-4F.02,20,Один наушник нашлись в углу прихожей%2C а другой – под тумбочке. 
# 8. Question (NULL if none)..
# 9. Answer.
# 10. Whether or not answer was correct (NULL if N/A).
# 11. Time taken to answer..
1636882823,f22bc56aad1bc122b31322a6a09ec2f6,47,0,Fu-4F.02,20,NULL,7,NULL,210
# 8. Sentence (or sentence MD5).
1636882823,f22bc56aad1bc122b31322a6a09ec2f6,16,0,id.pozv.act.a,5,Бесконечные промедления не позволяли делу сдвинуться с мёртвой точки.
# 8. Question (NULL if none)..
# 9. Answer.
# 10. Whether or not answer was correct (NULL if N/A).
# 11. Time taken to answer..
1636882823,f22bc56aad1bc122b31322a6a09ec2f6,16,0,id.pozv.act.a,5,NULL,7,NULL,594
# 8. Sentence (or sentence MD5).
1636882823,f22bc56aad1bc122b31322a6a09ec2f6,39,0,Fg-8F.02,16,Каждый раз%2C когда я прохожу мимо памятника Ленину%2C мне кажется%2C что он шатается.
# 8. Question (NULL if none)..
# 9. Answer.
# 10. Whether or not answer was correct (NULL if N/A).
# 11. Time taken to answer..
1636882823,f22bc56aad1bc122b31322a6a09ec2f6,39,0,Fg-8F.02,16,NULL,7,NULL,480
# 8. Sentence (or sentence MD5).
1636882823,f22bc56aad1bc122b31322a6a09ec2f6,56,0,hiddenCompletionCode,NULL,LIR756325226
#
# Results on Sun, 14 Nov 2021 10:01:25 GMT
# USER AGENT: Mozilla/5.0 (Macintosh; Intel Mac OS X 10_15_7) AppleWebKit/605.1.15 (KHTML, like Gecko) Version/15.1 Safari/605.1.15
# Design number was non-random = 14
#
# Columns below this comment are as follows:
# 1. Results reception time.
# 2. MD5 hash of participant's IP address.
# 3. Controller name.
# 4. Order number of item.
# 5. Inner element number.
# 6. Label.
# 7. Latin Square Group.
# 8. Sentence (or sentence MD5).
1636884085,68a5f30804bb182eafc9aba1e3a978f3,4,0,practice1,NULL,Андрей опоздал на поезд и очень расстроился.
# 8. Question (NULL if none)..
# 9. Answer.
# 10. Whether or not answer was correct (NULL if N/A).
# 11. Time taken to answer..
1636884085,68a5f30804bb182eafc9aba1e3a978f3,4,0,practice1,NULL,NULL,7,NULL,2210
# 8. Sentence (or sentence MD5).
1636884085,68a5f30804bb182eafc9aba1e3a978f3,6,0,practice2,NULL,Буйный заросли крапива выросла домом за.
# 8. Question (NULL if none)..
# 9. Answer.
# 10. Whether or not answer was correct (NULL if N/A).
# 11. Time taken to answer..
1636884085,68a5f30804bb182eafc9aba1e3a978f3,6,0,practice2,NULL,NULL,1,NULL,1379
# 8. Sentence (or sentence MD5).
1636884085,68a5f30804bb182eafc9aba1e3a978f3,32,0,Fg-5F.01,13,На поле рядом с моим домом уже давно ничего не выращивают. 
# 8. Question (NULL if none)..
# 9. Answer.
# 10. Whether or not answer was correct (NULL if N/A).
# 11. Time taken to answer..
1636884085,68a5f30804bb182eafc9aba1e3a978f3,32,0,Fg-5F.01,13,NULL,5,NULL,3027
# 8. Sentence (or sentence MD5).
1636884085,68a5f30804bb182eafc9aba1e3a978f3,40,0,Fu-1F.01,17,Анечка совсем не хотела есть суп%2C потому что терпеть не могло вареный луком. 
# 8. Question (NULL if none)..
# 9. Answer.
# 10. Whether or not answer was correct (NULL if N/A).
# 11. Time taken to answer..
1636884085,68a5f30804bb182eafc9aba1e3a978f3,40,0,Fu-1F.01,17,NULL,5,NULL,443
# 8. Sentence (or sentence MD5).
1636884085,68a5f30804bb182eafc9aba1e3a978f3,11,0,id.zast.pass.b,2,Хватит учить Пашу писать стихи – заставляешь бумагу мараться почем зря.
# 8. Question (NULL if none)..
# 9. Answer.
# 10. Whether or not answer was correct (NULL if N/A).
# 11. Time taken to answer..
1636884085,68a5f30804bb182eafc9aba1e3a978f3,11,0,id.zast.pass.b,2,NULL,5,NULL,432
# 8. Sentence (or sentence MD5).
1636884085,68a5f30804bb182eafc9aba1e3a978f3,36,0,Fg-7F.01,15,Квартира в пригороде Москвы дешевле%2C но ежедневно добираться оттуда на работу – большая трата времени. 
# 8. Question (NULL if none)..
# 9. Answer.
# 10. Whether or not answer was correct (NULL if N/A).
# 11. Time taken to answer..
1636884085,68a5f30804bb182eafc9aba1e3a978f3,36,0,Fg-7F.01,15,NULL,5,NULL,400
# 8. Sentence (or sentence MD5).
1636884085,68a5f30804bb182eafc9aba1e3a978f3,52,0,Fu-7F.01,23,Со второго ряда уже было лектора плохо слышный%2C а до задних парт доходило еле-еле.
# 8. Question (NULL if none)..
# 9. Answer.
# 10. Whether or not answer was correct (NULL if N/A).
# 11. Time taken to answer..
1636884085,68a5f30804bb182eafc9aba1e3a978f3,52,0,Fu-7F.01,23,NULL,5,NULL,418
# 8. Sentence (or sentence MD5).
1636884085,68a5f30804bb182eafc9aba1e3a978f3,15,0,id.mesh.pass.b,4,Родительский контроль должен мешать головам детей забиваться чушью%2C которую они могут увидеть в интернете.
# 8. Question (NULL if none)..
# 9. Answer.
# 10. Whether or not answer was correct (NULL if N/A).
# 11. Time taken to answer..
1636884085,68a5f30804bb182eafc9aba1e3a978f3,15,0,id.mesh.pass.b,4,NULL,5,NULL,334
# 8. Sentence (or sentence MD5).
1636884085,68a5f30804bb182eafc9aba1e3a978f3,27,0,Fg-2F.02,10,Сколько он ни пытался%2C не даётся ему сербский язык – то ли дело итальянский.
# 8. Question (NULL if none)..
# 9. Answer.
# 10. Whether or not answer was correct (NULL if N/A).
# 11. Time taken to answer..
1636884085,68a5f30804bb182eafc9aba1e3a978f3,27,0,Fg-2F.02,10,NULL,5,NULL,302
# 8. Sentence (or sentence MD5).
1636884085,68a5f30804bb182eafc9aba1e3a978f3,48,0,Fu-5F.01,21,Ты правда научился читать всего в три лет?
# 8. Question (NULL if none)..
# 9. Answer.
# 10. Whether or not answer was correct (NULL if N/A).
# 11. Time taken to answer..
1636884085,68a5f30804bb182eafc9aba1e3a978f3,48,0,Fu-5F.01,21,NULL,5,NULL,367
# 8. Sentence (or sentence MD5).
1636884085,68a5f30804bb182eafc9aba1e3a978f3,20,0,id.pomo.act.a,7,Следователи были в полном замешательстве%2C но рассказ очевидца помог всему встать на свои места. 
# 8. Question (NULL if none)..
# 9. Answer.
# 10. Whether or not answer was correct (NULL if N/A).
# 11. Time taken to answer..
1636884085,68a5f30804bb182eafc9aba1e3a978f3,20,0,id.pomo.act.a,7,NULL,5,NULL,350
# 8. Sentence (or sentence MD5).
1636884085,68a5f30804bb182eafc9aba1e3a978f3,31,0,Fg-4F.02,12,Римма боится собак%2C да так%2C что может в обморок упасть%2C если Рекс на неё зарычит.
# 8. Question (NULL if none)..
# 9. Answer.
# 10. Whether or not answer was correct (NULL if N/A).
# 11. Time taken to answer..
1636884085,68a5f30804bb182eafc9aba1e3a978f3,31,0,Fg-4F.02,12,NULL,5,NULL,393
# 8. Sentence (or sentence MD5).
1636884085,68a5f30804bb182eafc9aba1e3a978f3,47,0,Fu-4F.02,20,Один наушник нашлись в углу прихожей%2C а другой – под тумбочке. 
# 8. Question (NULL if none)..
# 9. Answer.
# 10. Whether or not answer was correct (NULL if N/A).
# 11. Time taken to answer..
1636884085,68a5f30804bb182eafc9aba1e3a978f3,47,0,Fu-4F.02,20,NULL,5,NULL,280
# 8. Sentence (or sentence MD5).
1636884085,68a5f30804bb182eafc9aba1e3a978f3,23,0,id.pomo.pass.b,8,Дружелюбный настрой Костиных новых знакомых и бутылка хорошего полусухого вина помогли льду растопиться быстро и легко.
# 8. Question (NULL if none)..
# 9. Answer.
# 10. Whether or not answer was correct (NULL if N/A).
# 11. Time taken to answer..
1636884085,68a5f30804bb182eafc9aba1e3a978f3,23,0,id.pomo.pass.b,8,NULL,5,NULL,368
# 8. Sentence (or sentence MD5).
1636884085,68a5f30804bb182eafc9aba1e3a978f3,28,0,Fg-3F.01,11,Мама надела сапоги%2C чёрное пальто%2C накинула на голову подаренный отцом шелковый платок и вышла во двор. 
# 8. Question (NULL if none)..
# 9. Answer.
# 10. Whether or not answer was correct (NULL if N/A).
# 11. Time taken to answer..
1636884085,68a5f30804bb182eafc9aba1e3a978f3,28,0,Fg-3F.01,11,NULL,5,NULL,436
# 8. Sentence (or sentence MD5).
1636884085,68a5f30804bb182eafc9aba1e3a978f3,43,0,Fu-2F.02,18,Если мой рассказ тебя не убедишь%2C поговори с Алисой – она отлично разбирается в людях. 
# 8. Question (NULL if none)..
# 9. Answer.
# 10. Whether or not answer was correct (NULL if N/A).
# 11. Time taken to answer..
1636884085,68a5f30804bb182eafc9aba1e3a978f3,43,0,Fu-2F.02,18,NULL,5,NULL,371
# 8. Sentence (or sentence MD5).
1636884085,68a5f30804bb182eafc9aba1e3a978f3,8,0,id.zast.act.a,1,Очередной провал заставил почву уйти из-под ног молодого предпринимателя – выхода из ситуации не было никакого. 
# 8. Question (NULL if none)..
# 9. Answer.
# 10. Whether or not answer was correct (NULL if N/A).
# 11. Time taken to answer..
1636884085,68a5f30804bb182eafc9aba1e3a978f3,8,0,id.zast.act.a,1,NULL,5,NULL,517
# 8. Sentence (or sentence MD5).
1636884085,68a5f30804bb182eafc9aba1e3a978f3,24,0,Fg-1F.01,9,Если бы не дождь с градом%2C я бы пошла сегодня гулять в Петровский парк. 
# 8. Question (NULL if none)..
# 9. Answer.
# 10. Whether or not answer was correct (NULL if N/A).
# 11. Time taken to answer..
1636884085,68a5f30804bb182eafc9aba1e3a978f3,24,0,Fg-1F.01,9,NULL,5,NULL,604
# 8. Sentence (or sentence MD5).
1636884085,68a5f30804bb182eafc9aba1e3a978f3,55,0,Fu-8F.02,24,Как настоящая творческая личность%2C Никитка скоро украсил обои в прихожей при помощью своих новых фломастерами.
# 8. Question (NULL if none)..
# 9. Answer.
# 10. Whether or not answer was correct (NULL if N/A).
# 11. Time taken to answer..
1636884085,68a5f30804bb182eafc9aba1e3a978f3,55,0,Fu-8F.02,24,NULL,5,NULL,603
# 8. Sentence (or sentence MD5).
1636884085,68a5f30804bb182eafc9aba1e3a978f3,16,0,id.pozv.act.a,5,Бесконечные промедления не позволяли делу сдвинуться с мёртвой точки.
# 8. Question (NULL if none)..
# 9. Answer.
# 10. Whether or not answer was correct (NULL if N/A).
# 11. Time taken to answer..
1636884085,68a5f30804bb182eafc9aba1e3a978f3,16,0,id.pozv.act.a,5,NULL,5,NULL,624
# 8. Sentence (or sentence MD5).
1636884085,68a5f30804bb182eafc9aba1e3a978f3,39,0,Fg-8F.02,16,Каждый раз%2C когда я прохожу мимо памятника Ленину%2C мне кажется%2C что он шатается.
# 8. Question (NULL if none)..
# 9. Answer.
# 10. Whether or not answer was correct (NULL if N/A).
# 11. Time taken to answer..
1636884085,68a5f30804bb182eafc9aba1e3a978f3,39,0,Fg-8F.02,16,NULL,5,NULL,530
# 8. Sentence (or sentence MD5).
1636884085,68a5f30804bb182eafc9aba1e3a978f3,44,0,Fu-3F.01,19,Дома холодные полы%2C поэтому бабушка настаивает%2C чтобы гости наденут тапочки. 
# 8. Question (NULL if none)..
# 9. Answer.
# 10. Whether or not answer was correct (NULL if N/A).
# 11. Time taken to answer..
1636884085,68a5f30804bb182eafc9aba1e3a978f3,44,0,Fu-3F.01,19,NULL,5,NULL,454
# 8. Sentence (or sentence MD5).
1636884085,68a5f30804bb182eafc9aba1e3a978f3,12,0,id.mesh.act.a,3,Мой день рождения проходил отлично%2C однако праздник не мешал кошкам скрести на душе. 
# 8. Question (NULL if none)..
# 9. Answer.
# 10. Whether or not answer was correct (NULL if N/A).
# 11. Time taken to answer..
1636884085,68a5f30804bb182eafc9aba1e3a978f3,12,0,id.mesh.act.a,3,NULL,5,NULL,545
# 8. Sentence (or sentence MD5).
1636884085,68a5f30804bb182eafc9aba1e3a978f3,35,0,Fg-6F.02,14,Нет ничего красивее блестящих на солнце луж.
# 8. Question (NULL if none)..
# 9. Answer.
# 10. Whether or not answer was correct (NULL if N/A).
# 11. Time taken to answer..
1636884085,68a5f30804bb182eafc9aba1e3a978f3,35,0,Fg-6F.02,14,NULL,5,NULL,436
# 8. Sentence (or sentence MD5).
1636884085,68a5f30804bb182eafc9aba1e3a978f3,51,0,Fu-6F.02,22,Виктор опять не принес сочинение на урок литературы%2C и учитель снова начал за отчитывать его возмутительное неприлежание.
# 8. Question (NULL if none)..
# 9. Answer.
# 10. Whether or not answer was correct (NULL if N/A).
# 11. Time taken to answer..
1636884085,68a5f30804bb182eafc9aba1e3a978f3,51,0,Fu-6F.02,22,NULL,5,NULL,458
# 8. Sentence (or sentence MD5).
1636884085,68a5f30804bb182eafc9aba1e3a978f3,19,0,id.pozv.pass.b,6,Школьная директриса Лариса Эдуардовна была сторонницей индивидуального подхода к ученикам и не позволяла ярлыкам вешаться без разбора. 
# 8. Question (NULL if none)..
# 9. Answer.
# 10. Whether or not answer was correct (NULL if N/A).
# 11. Time taken to answer..
1636884085,68a5f30804bb182eafc9aba1e3a978f3,19,0,id.pozv.pass.b,6,NULL,5,NULL,470
# 8. Sentence (or sentence MD5).
1636884085,68a5f30804bb182eafc9aba1e3a978f3,56,0,hiddenCompletionCode,NULL,LIR9039252928
#
# Results on Sun, 14 Nov 2021 10:17:21 GMT
# USER AGENT: Mozilla/5.0 (Macintosh; Intel Mac OS X 10_15_7) AppleWebKit/605.1.15 (KHTML, like Gecko) Version/15.1 Safari/605.1.15
# Design number was non-random = 15
#
# Columns below this comment are as follows:
# 1. Results reception time.
# 2. MD5 hash of participant's IP address.
# 3. Controller name.
# 4. Order number of item.
# 5. Inner element number.
# 6. Label.
# 7. Latin Square Group.
# 8. Sentence (or sentence MD5).
1636885041,5da1ea2b070a8ad78c47b1257c7ef58d,4,0,practice1,NULL,Андрей опоздал на поезд и очень расстроился.
# 8. Question (NULL if none)..
# 9. Answer.
# 10. Whether or not answer was correct (NULL if N/A).
# 11. Time taken to answer..
1636885041,5da1ea2b070a8ad78c47b1257c7ef58d,4,0,practice1,NULL,NULL,7,NULL,2969
# 8. Sentence (or sentence MD5).
1636885041,5da1ea2b070a8ad78c47b1257c7ef58d,6,0,practice2,NULL,Буйный заросли крапива выросла домом за.
# 8. Question (NULL if none)..
# 9. Answer.
# 10. Whether or not answer was correct (NULL if N/A).
# 11. Time taken to answer..
1636885041,5da1ea2b070a8ad78c47b1257c7ef58d,6,0,practice2,NULL,NULL,1,NULL,4027
# 8. Sentence (or sentence MD5).
1636885041,5da1ea2b070a8ad78c47b1257c7ef58d,33,0,Fg-5F.02,13,Девчонки столпились у окна%2C чтобы посмотреть на двойную радугу%2C но никак не могли её разглядеть.
# 8. Question (NULL if none)..
# 9. Answer.
# 10. Whether or not answer was correct (NULL if N/A).
# 11. Time taken to answer..
1636885041,5da1ea2b070a8ad78c47b1257c7ef58d,33,0,Fg-5F.02,13,NULL,7,NULL,4925
# 8. Sentence (or sentence MD5).
1636885041,5da1ea2b070a8ad78c47b1257c7ef58d,50,0,Fu-6F.01,22,На стене висел акварельные этюды%2C исчерканные углевым карандашом для придания глубины%2C карта Израиля и круглыми часы. 
# 8. Question (NULL if none)..
# 9. Answer.
# 10. Whether or not answer was correct (NULL if N/A).
# 11. Time taken to answer..
1636885041,5da1ea2b070a8ad78c47b1257c7ef58d,50,0,Fu-6F.01,22,NULL,1,NULL,2375
# 8. Sentence (or sentence MD5).
1636885041,5da1ea2b070a8ad78c47b1257c7ef58d,18,0,id.pozv.pass.a,6,Серёжка думал%2C поселить ли у себя в комнате домашнюю жабу%2C но внезапное появление отца позволило её судьбе решиться мгновенно – она была выдворена на улицу.
# 8. Question (NULL if none)..
# 9. Answer.
# 10. Whether or not answer was correct (NULL if N/A).
# 11. Time taken to answer..
1636885041,5da1ea2b070a8ad78c47b1257c7ef58d,18,0,id.pozv.pass.a,6,NULL,5,NULL,21148
# 8. Sentence (or sentence MD5).
1636885041,5da1ea2b070a8ad78c47b1257c7ef58d,29,0,Fg-3F.02,11,Курины уехали на дачу на две недели%2C и до них теперь не дозвонишься.
# 8. Question (NULL if none)..
# 9. Answer.
# 10. Whether or not answer was correct (NULL if N/A).
# 11. Time taken to answer..
1636885041,5da1ea2b070a8ad78c47b1257c7ef58d,29,0,Fg-3F.02,11,NULL,7,NULL,5085
# 8. Sentence (or sentence MD5).
1636885041,5da1ea2b070a8ad78c47b1257c7ef58d,42,0,Fu-2F.01,18,У меня никогда не было музыкальных способностей%2C но я отличалась склонностью рисованием. 
# 8. Question (NULL if none)..
# 9. Answer.
# 10. Whether or not answer was correct (NULL if N/A).
# 11. Time taken to answer..
1636885041,5da1ea2b070a8ad78c47b1257c7ef58d,42,0,Fu-2F.01,18,NULL,1,NULL,4653
# 8. Sentence (or sentence MD5).
1636885041,5da1ea2b070a8ad78c47b1257c7ef58d,9,0,id.zast.act.b,1,Напряженное молчание заставляло атмосферу сгущаться сильнее и сильнее. 
# 8. Question (NULL if none)..
# 9. Answer.
# 10. Whether or not answer was correct (NULL if N/A).
# 11. Time taken to answer..
1636885041,5da1ea2b070a8ad78c47b1257c7ef58d,9,0,id.zast.act.b,1,NULL,7,NULL,4910
# 8. Sentence (or sentence MD5).
1636885041,5da1ea2b070a8ad78c47b1257c7ef58d,30,0,Fg-4F.01,12,Химия так плохо давалась Насте%2C что пришлось нанять репетитора – студента 4 курса МГУ. 
# 8. Question (NULL if none)..
# 9. Answer.
# 10. Whether or not answer was correct (NULL if N/A).
# 11. Time taken to answer..
1636885041,5da1ea2b070a8ad78c47b1257c7ef58d,30,0,Fg-4F.01,12,NULL,7,NULL,6139
# 8. Sentence (or sentence MD5).
1636885041,5da1ea2b070a8ad78c47b1257c7ef58d,41,0,Fu-1F.02,17,Все были взволнованы после ухода Петра Степановича%2C даже Лизе. 
# 8. Question (NULL if none)..
# 9. Answer.
# 10. Whether or not answer was correct (NULL if N/A).
# 11. Time taken to answer..
1636885041,5da1ea2b070a8ad78c47b1257c7ef58d,41,0,Fu-1F.02,17,NULL,1,NULL,4823
# 8. Sentence (or sentence MD5).
1636885041,5da1ea2b070a8ad78c47b1257c7ef58d,14,0,id.mesh.pass.a,4,Хорошее воспитание не мешало грехам водиться за Аркашей. 
# 8. Question (NULL if none)..
# 9. Answer.
# 10. Whether or not answer was correct (NULL if N/A).
# 11. Time taken to answer..
1636885041,5da1ea2b070a8ad78c47b1257c7ef58d,14,0,id.mesh.pass.a,4,NULL,4,NULL,5932
# 8. Sentence (or sentence MD5).
1636885041,5da1ea2b070a8ad78c47b1257c7ef58d,38,0,Fg-8F.01,16,Папа купил лимонад и килограмм креветок – вечером будет маленькое застолье.
# 8. Question (NULL if none)..
# 9. Answer.
# 10. Whether or not answer was correct (NULL if N/A).
# 11. Time taken to answer..
1636885041,5da1ea2b070a8ad78c47b1257c7ef58d,38,0,Fg-8F.01,16,NULL,7,NULL,7130
# 8. Sentence (or sentence MD5).
1636885041,5da1ea2b070a8ad78c47b1257c7ef58d,53,0,Fu-7F.02,23,Дойдя до вертолётной площадки%2C мы повернулись назад и увидели закат холодное осеннего солнце.
# 8. Question (NULL if none)..
# 9. Answer.
# 10. Whether or not answer was correct (NULL if N/A).
# 11. Time taken to answer..
1636885041,5da1ea2b070a8ad78c47b1257c7ef58d,53,0,Fu-7F.02,23,NULL,1,NULL,4016
# 8. Sentence (or sentence MD5).
1636885041,5da1ea2b070a8ad78c47b1257c7ef58d,10,0,id.zast.pass.a,2,Приход в администрацию нового руководства заставил декорации смениться.
# 8. Question (NULL if none)..
# 9. Answer.
# 10. Whether or not answer was correct (NULL if N/A).
# 11. Time taken to answer..
1636885041,5da1ea2b070a8ad78c47b1257c7ef58d,10,0,id.zast.pass.a,2,NULL,5,NULL,7280
# 8. Sentence (or sentence MD5).
1636885041,5da1ea2b070a8ad78c47b1257c7ef58d,26,0,Fg-2F.01,10,Алёше уже не нужны костыли – его нога совсем зажила. 
# 8. Question (NULL if none)..
# 9. Answer.
# 10. Whether or not answer was correct (NULL if N/A).
# 11. Time taken to answer..
1636885041,5da1ea2b070a8ad78c47b1257c7ef58d,26,0,Fg-2F.01,10,NULL,7,NULL,3505
# 8. Sentence (or sentence MD5).
1636885041,5da1ea2b070a8ad78c47b1257c7ef58d,54,0,Fu-8F.01,24,Нике явно не нравилось вечеринке%2C у неё болела голова и она поскорее хотела пойдёт домой.
# 8. Question (NULL if none)..
# 9. Answer.
# 10. Whether or not answer was correct (NULL if N/A).
# 11. Time taken to answer..
1636885041,5da1ea2b070a8ad78c47b1257c7ef58d,54,0,Fu-8F.01,24,NULL,1,NULL,3547
# 8. Sentence (or sentence MD5).
1636885041,5da1ea2b070a8ad78c47b1257c7ef58d,17,0,id.pozv.act.b,5,В команде проекта собрались отличные компетентные люди%2C но отсутствие чётких указаний от руководителя не позволяло льду тронуться.
# 8. Question (NULL if none)..
# 9. Answer.
# 10. Whether or not answer was correct (NULL if N/A).
# 11. Time taken to answer..
1636885041,5da1ea2b070a8ad78c47b1257c7ef58d,17,0,id.pozv.act.b,5,NULL,6,NULL,75611
# 8. Sentence (or sentence MD5).
1636885041,5da1ea2b070a8ad78c47b1257c7ef58d,37,0,Fg-7F.02,15,Новосибирск оказался вовсе не таким%2C каким Лиза его себе представляла.
# 8. Question (NULL if none)..
# 9. Answer.
# 10. Whether or not answer was correct (NULL if N/A).
# 11. Time taken to answer..
1636885041,5da1ea2b070a8ad78c47b1257c7ef58d,37,0,Fg-7F.02,15,NULL,7,NULL,3732
# 8. Sentence (or sentence MD5).
1636885041,5da1ea2b070a8ad78c47b1257c7ef58d,45,0,Fu-3F.02,19,Больше всего маленький Ваня боялся темноты%2C и поэтому света засыпал без никогда. 
# 8. Question (NULL if none)..
# 9. Answer.
# 10. Whether or not answer was correct (NULL if N/A).
# 11. Time taken to answer..
1636885041,5da1ea2b070a8ad78c47b1257c7ef58d,45,0,Fu-3F.02,19,NULL,1,NULL,3367
# 8. Sentence (or sentence MD5).
1636885041,5da1ea2b070a8ad78c47b1257c7ef58d,22,0,id.pomo.pass.a,8,Новые запретительные меры помогли гайкам закрутиться ещё сильнее. 
# 8. Question (NULL if none)..
# 9. Answer.
# 10. Whether or not answer was correct (NULL if N/A).
# 11. Time taken to answer..
1636885041,5da1ea2b070a8ad78c47b1257c7ef58d,22,0,id.pomo.pass.a,8,NULL,4,NULL,7164
# 8. Sentence (or sentence MD5).
1636885041,5da1ea2b070a8ad78c47b1257c7ef58d,25,0,Fg-1F.02,9,Меня пригласили на выставку%2C посвященную русским супрематистам%2C но мне совсем не хотелось идти. 
# 8. Question (NULL if none)..
# 9. Answer.
# 10. Whether or not answer was correct (NULL if N/A).
# 11. Time taken to answer..
1636885041,5da1ea2b070a8ad78c47b1257c7ef58d,25,0,Fg-1F.02,9,NULL,6,NULL,10558
# 8. Sentence (or sentence MD5).
1636885041,5da1ea2b070a8ad78c47b1257c7ef58d,46,0,Fu-4F.01,20,Дедлайн стремительно приближался%2C а я успевает сделать примерно ничего. 
# 8. Question (NULL if none)..
# 9. Answer.
# 10. Whether or not answer was correct (NULL if N/A).
# 11. Time taken to answer..
1636885041,5da1ea2b070a8ad78c47b1257c7ef58d,46,0,Fu-4F.01,20,NULL,1,NULL,4368
# 8. Sentence (or sentence MD5).
1636885041,5da1ea2b070a8ad78c47b1257c7ef58d,13,0,id.mesh.act.b,3,Никакие утешения не мешали слезам литься в три ручья – потерялась Анина любимая плюшевая собачка.
# 8. Question (NULL if none)..
# 9. Answer.
# 10. Whether or not answer was correct (NULL if N/A).
# 11. Time taken to answer..
1636885041,5da1ea2b070a8ad78c47b1257c7ef58d,13,0,id.mesh.act.b,3,NULL,7,NULL,5360
# 8. Sentence (or sentence MD5).
1636885041,5da1ea2b070a8ad78c47b1257c7ef58d,34,0,Fg-6F.01,14,Никто не заставляет Витю просыпаться в шесть утра%2C он сам поднимается и идет на пробежку. 
# 8. Question (NULL if none)..
# 9. Answer.
# 10. Whether or not answer was correct (NULL if N/A).
# 11. Time taken to answer..
1636885041,5da1ea2b070a8ad78c47b1257c7ef58d,34,0,Fg-6F.01,14,NULL,7,NULL,5494
# 8. Sentence (or sentence MD5).
1636885041,5da1ea2b070a8ad78c47b1257c7ef58d,49,0,Fu-5F.02,21,Рыбу здесь запрещено ловил сетями и пугал бы взрывчаткой.
# 8. Question (NULL if none)..
# 9. Answer.
# 10. Whether or not answer was correct (NULL if N/A).
# 11. Time taken to answer..
1636885041,5da1ea2b070a8ad78c47b1257c7ef58d,49,0,Fu-5F.02,21,NULL,1,NULL,3431
# 8. Sentence (or sentence MD5).
1636885041,5da1ea2b070a8ad78c47b1257c7ef58d,21,0,id.pomo.act.b,7,Алёна была в ярости%2C когда узнала%2C где муж побывал той ночью%2C но искренние извинения и пышный букет пионов помогли гневу смениться на милость.
# 8. Question (NULL if none)..
# 9. Answer.
# 10. Whether or not answer was correct (NULL if N/A).
# 11. Time taken to answer..
1636885041,5da1ea2b070a8ad78c47b1257c7ef58d,21,0,id.pomo.act.b,7,NULL,6,NULL,9556
# 8. Sentence (or sentence MD5).
1636885041,5da1ea2b070a8ad78c47b1257c7ef58d,56,0,hiddenCompletionCode,NULL,LIR2138009159
#
# Results on Sun, 14 Nov 2021 10:52:39 GMT
# USER AGENT: Mozilla/5.0 (iPhone; CPU iPhone OS 12_5_4 like Mac OS X) AppleWebKit/605.1.15 (KHTML, like Gecko) Version/12.1.2 Mobile/15E148 Safari/604.1
# Design number was non-random = 19
#
# Columns below this comment are as follows:
# 1. Results reception time.
# 2. MD5 hash of participant's IP address.
# 3. Controller name.
# 4. Order number of item.
# 5. Inner element number.
# 6. Label.
# 7. Latin Square Group.
# 8. Sentence (or sentence MD5).
1636887159,5c363bbc12e9e841dd3cb3cf4fcc6004,4,0,practice1,NULL,Андрей опоздал на поезд и очень расстроился.
# 8. Question (NULL if none)..
# 9. Answer.
# 10. Whether or not answer was correct (NULL if N/A).
# 11. Time taken to answer..
1636887159,5c363bbc12e9e841dd3cb3cf4fcc6004,4,0,practice1,NULL,NULL,7,NULL,5395
# 8. Sentence (or sentence MD5).
1636887159,5c363bbc12e9e841dd3cb3cf4fcc6004,6,0,practice2,NULL,Буйный заросли крапива выросла домом за.
# 8. Question (NULL if none)..
# 9. Answer.
# 10. Whether or not answer was correct (NULL if N/A).
# 11. Time taken to answer..
1636887159,5c363bbc12e9e841dd3cb3cf4fcc6004,6,0,practice2,NULL,NULL,1,NULL,4544
# 8. Sentence (or sentence MD5).
1636887159,5c363bbc12e9e841dd3cb3cf4fcc6004,50,0,Fu-6F.01,22,На стене висел акварельные этюды%2C исчерканные углевым карандашом для придания глубины%2C карта Израиля и круглыми часы. 
# 8. Question (NULL if none)..
# 9. Answer.
# 10. Whether or not answer was correct (NULL if N/A).
# 11. Time taken to answer..
1636887159,5c363bbc12e9e841dd3cb3cf4fcc6004,50,0,Fu-6F.01,22,NULL,1,NULL,8488
# 8. Sentence (or sentence MD5).
1636887159,5c363bbc12e9e841dd3cb3cf4fcc6004,38,0,Fg-8F.01,16,Папа купил лимонад и килограмм креветок – вечером будет маленькое застолье.
# 8. Question (NULL if none)..
# 9. Answer.
# 10. Whether or not answer was correct (NULL if N/A).
# 11. Time taken to answer..
1636887159,5c363bbc12e9e841dd3cb3cf4fcc6004,38,0,Fg-8F.01,16,NULL,7,NULL,8941
# 8. Sentence (or sentence MD5).
1636887159,5c363bbc12e9e841dd3cb3cf4fcc6004,18,0,id.pozv.pass.a,6,Серёжка думал%2C поселить ли у себя в комнате домашнюю жабу%2C но внезапное появление отца позволило её судьбе решиться мгновенно – она была выдворена на улицу.
# 8. Question (NULL if none)..
# 9. Answer.
# 10. Whether or not answer was correct (NULL if N/A).
# 11. Time taken to answer..
1636887159,5c363bbc12e9e841dd3cb3cf4fcc6004,18,0,id.pozv.pass.a,6,NULL,6,NULL,9266
# 8. Sentence (or sentence MD5).
1636887159,5c363bbc12e9e841dd3cb3cf4fcc6004,53,0,Fu-7F.02,23,Дойдя до вертолётной площадки%2C мы повернулись назад и увидели закат холодное осеннего солнце.
# 8. Question (NULL if none)..
# 9. Answer.
# 10. Whether or not answer was correct (NULL if N/A).
# 11. Time taken to answer..
1636887159,5c363bbc12e9e841dd3cb3cf4fcc6004,53,0,Fu-7F.02,23,NULL,2,NULL,5354
# 8. Sentence (or sentence MD5).
1636887159,5c363bbc12e9e841dd3cb3cf4fcc6004,25,0,Fg-1F.02,9,Меня пригласили на выставку%2C посвященную русским супрематистам%2C но мне совсем не хотелось идти. 
# 8. Question (NULL if none)..
# 9. Answer.
# 10. Whether or not answer was correct (NULL if N/A).
# 11. Time taken to answer..
1636887159,5c363bbc12e9e841dd3cb3cf4fcc6004,25,0,Fg-1F.02,9,NULL,6,NULL,3582
# 8. Sentence (or sentence MD5).
1636887159,5c363bbc12e9e841dd3cb3cf4fcc6004,17,0,id.pozv.act.b,5,В команде проекта собрались отличные компетентные люди%2C но отсутствие чётких указаний от руководителя всё никак не позволяло льду тронуться.
# 8. Question (NULL if none)..
# 9. Answer.
# 10. Whether or not answer was correct (NULL if N/A).
# 11. Time taken to answer..
1636887159,5c363bbc12e9e841dd3cb3cf4fcc6004,17,0,id.pozv.act.b,5,NULL,5,NULL,6443
# 8. Sentence (or sentence MD5).
1636887159,5c363bbc12e9e841dd3cb3cf4fcc6004,49,0,Fu-5F.02,21,Рыбу здесь запрещено ловил сетями и пугал бы взрывчаткой.
# 8. Question (NULL if none)..
# 9. Answer.
# 10. Whether or not answer was correct (NULL if N/A).
# 11. Time taken to answer..
1636887159,5c363bbc12e9e841dd3cb3cf4fcc6004,49,0,Fu-5F.02,21,NULL,1,NULL,3318
# 8. Sentence (or sentence MD5).
1636887159,5c363bbc12e9e841dd3cb3cf4fcc6004,33,0,Fg-5F.02,13,Девчонки столпились у окна%2C чтобы посмотреть на двойную радугу%2C но никак не могли её разглядеть.
# 8. Question (NULL if none)..
# 9. Answer.
# 10. Whether or not answer was correct (NULL if N/A).
# 11. Time taken to answer..
1636887159,5c363bbc12e9e841dd3cb3cf4fcc6004,33,0,Fg-5F.02,13,NULL,7,NULL,7112
# 8. Sentence (or sentence MD5).
1636887159,5c363bbc12e9e841dd3cb3cf4fcc6004,13,0,id.mesh.act.b,3,Никакие утешения не мешали слезам литься в три ручья – потерялась Анина любимая плюшевая собачка.
# 8. Question (NULL if none)..
# 9. Answer.
# 10. Whether or not answer was correct (NULL if N/A).
# 11. Time taken to answer..
1636887159,5c363bbc12e9e841dd3cb3cf4fcc6004,13,0,id.mesh.act.b,3,NULL,5,NULL,6480
# 8. Sentence (or sentence MD5).
1636887159,5c363bbc12e9e841dd3cb3cf4fcc6004,41,0,Fu-1F.02,17,Все были взволнованы после ухода Петра Степановича%2C даже Лизе. 
# 8. Question (NULL if none)..
# 9. Answer.
# 10. Whether or not answer was correct (NULL if N/A).
# 11. Time taken to answer..
1636887159,5c363bbc12e9e841dd3cb3cf4fcc6004,41,0,Fu-1F.02,17,NULL,2,NULL,6237
# 8. Sentence (or sentence MD5).
1636887159,5c363bbc12e9e841dd3cb3cf4fcc6004,26,0,Fg-2F.01,10,Алёше уже не нужны костыли – его нога совсем зажила. 
# 8. Question (NULL if none)..
# 9. Answer.
# 10. Whether or not answer was correct (NULL if N/A).
# 11. Time taken to answer..
1636887159,5c363bbc12e9e841dd3cb3cf4fcc6004,26,0,Fg-2F.01,10,NULL,6,NULL,3034
# 8. Sentence (or sentence MD5).
1636887159,5c363bbc12e9e841dd3cb3cf4fcc6004,22,0,id.pomo.pass.a,8,Новые запретительные меры помогли гайкам закрутиться ещё сильнее. 
# 8. Question (NULL if none)..
# 9. Answer.
# 10. Whether or not answer was correct (NULL if N/A).
# 11. Time taken to answer..
1636887159,5c363bbc12e9e841dd3cb3cf4fcc6004,22,0,id.pomo.pass.a,8,NULL,4,NULL,4528
# 8. Sentence (or sentence MD5).
1636887159,5c363bbc12e9e841dd3cb3cf4fcc6004,45,0,Fu-3F.02,19,Больше всего маленький Ваня боялся темноты%2C и поэтому света засыпал без никогда. 
# 8. Question (NULL if none)..
# 9. Answer.
# 10. Whether or not answer was correct (NULL if N/A).
# 11. Time taken to answer..
1636887159,5c363bbc12e9e841dd3cb3cf4fcc6004,45,0,Fu-3F.02,19,NULL,1,NULL,3835
# 8. Sentence (or sentence MD5).
1636887159,5c363bbc12e9e841dd3cb3cf4fcc6004,37,0,Fg-7F.02,15,Новосибирск оказался вовсе не таким%2C каким Лиза его себе представляла.
# 8. Question (NULL if none)..
# 9. Answer.
# 10. Whether or not answer was correct (NULL if N/A).
# 11. Time taken to answer..
1636887159,5c363bbc12e9e841dd3cb3cf4fcc6004,37,0,Fg-7F.02,15,NULL,7,NULL,3730
# 8. Sentence (or sentence MD5).
1636887159,5c363bbc12e9e841dd3cb3cf4fcc6004,10,0,id.zast.pass.a,2,Приход в администрацию нового руководства заставил декорации смениться.
# 8. Question (NULL if none)..
# 9. Answer.
# 10. Whether or not answer was correct (NULL if N/A).
# 11. Time taken to answer..
1636887159,5c363bbc12e9e841dd3cb3cf4fcc6004,10,0,id.zast.pass.a,2,NULL,4,NULL,3320
# 8. Sentence (or sentence MD5).
1636887159,5c363bbc12e9e841dd3cb3cf4fcc6004,46,0,Fu-4F.01,20,Дедлайн стремительно приближался%2C а я успевает сделать примерно ничего. 
# 8. Question (NULL if none)..
# 9. Answer.
# 10. Whether or not answer was correct (NULL if N/A).
# 11. Time taken to answer..
1636887159,5c363bbc12e9e841dd3cb3cf4fcc6004,46,0,Fu-4F.01,20,NULL,2,NULL,3252
# 8. Sentence (or sentence MD5).
1636887159,5c363bbc12e9e841dd3cb3cf4fcc6004,34,0,Fg-6F.01,14,Никто не заставляет Витю просыпаться в шесть утра%2C он сам поднимается и идет на пробежку. 
# 8. Question (NULL if none)..
# 9. Answer.
# 10. Whether or not answer was correct (NULL if N/A).
# 11. Time taken to answer..
1636887159,5c363bbc12e9e841dd3cb3cf4fcc6004,34,0,Fg-6F.01,14,NULL,5,NULL,6260
# 8. Sentence (or sentence MD5).
1636887159,5c363bbc12e9e841dd3cb3cf4fcc6004,14,0,id.mesh.pass.a,4,Хорошее воспитание не мешало грехам водиться за Аркашей. 
# 8. Question (NULL if none)..
# 9. Answer.
# 10. Whether or not answer was correct (NULL if N/A).
# 11. Time taken to answer..
1636887159,5c363bbc12e9e841dd3cb3cf4fcc6004,14,0,id.mesh.pass.a,4,NULL,3,NULL,2652
# 8. Sentence (or sentence MD5).
1636887159,5c363bbc12e9e841dd3cb3cf4fcc6004,42,0,Fu-2F.01,18,У меня никогда не было музыкальных способностей%2C но я отличалась склонностью рисованием. 
# 8. Question (NULL if none)..
# 9. Answer.
# 10. Whether or not answer was correct (NULL if N/A).
# 11. Time taken to answer..
1636887159,5c363bbc12e9e841dd3cb3cf4fcc6004,42,0,Fu-2F.01,18,NULL,1,NULL,3269
# 8. Sentence (or sentence MD5).
1636887159,5c363bbc12e9e841dd3cb3cf4fcc6004,29,0,Fg-3F.02,11,Курины уехали на дачу на две недели%2C и до них теперь не дозвонишься.
# 8. Question (NULL if none)..
# 9. Answer.
# 10. Whether or not answer was correct (NULL if N/A).
# 11. Time taken to answer..
1636887159,5c363bbc12e9e841dd3cb3cf4fcc6004,29,0,Fg-3F.02,11,NULL,6,NULL,5859
# 8. Sentence (or sentence MD5).
