#
# Results on Tue, 16 Nov 2021 11:55:48 GMT
# USER AGENT: Mozilla/5.0 (Linux; Android 11; RMX2002) AppleWebKit/537.36 (KHTML, like Gecko) Chrome/95.0.4638.74 Mobile Safari/537.36
# Design number was non-random = 1
#
# Columns below this comment are as follows:
# 1. Results reception time.
# 2. MD5 hash of participant's IP address.
# 3. Controller name.
# 4. Order number of item.
# 5. Inner element number.
# 6. Label.
# 7. Latin Square Group.
# 8. Sentence (or sentence MD5).
1637063748,594607752e310b52ca3ed9783f930f44,4,0,practice1,NULL,Андрей опоздал на поезд и очень расстроился.
# 8. Question (NULL if none)..
# 9. Answer.
# 10. Whether or not answer was correct (NULL if N/A).
# 11. Time taken to answer..
1637063748,594607752e310b52ca3ed9783f930f44,4,0,practice1,NULL,NULL,7,NULL,2828
# 8. Sentence (or sentence MD5).
1637063748,594607752e310b52ca3ed9783f930f44,6,0,practice2,NULL,Буйный заросли крапива выросла домом за.
# 8. Question (NULL if none)..
# 9. Answer.
# 10. Whether or not answer was correct (NULL if N/A).
# 11. Time taken to answer..
1637063748,594607752e310b52ca3ed9783f930f44,6,0,practice2,NULL,NULL,1,NULL,2414
# 8. Sentence (or sentence MD5).
1637063748,594607752e310b52ca3ed9783f930f44,13,0,id.mesh.act.b,3,Никакие утешения не мешали слезам литься в три ручья – потерялась Анина любимая плюшевая собачка.
# 8. Question (NULL if none)..
# 9. Answer.
# 10. Whether or not answer was correct (NULL if N/A).
# 11. Time taken to answer..
1637063748,594607752e310b52ca3ed9783f930f44,13,0,id.mesh.act.b,3,NULL,7,NULL,5880
# 8. Sentence (or sentence MD5).
1637063748,594607752e310b52ca3ed9783f930f44,46,0,Fu-4F.01,20,Дедлайн стремительно приближался%2C а я успевает сделать примерно ничего. 
# 8. Question (NULL if none)..
# 9. Answer.
# 10. Whether or not answer was correct (NULL if N/A).
# 11. Time taken to answer..
1637063748,594607752e310b52ca3ed9783f930f44,46,0,Fu-4F.01,20,NULL,1,NULL,3251
# 8. Sentence (or sentence MD5).
1637063748,594607752e310b52ca3ed9783f930f44,38,0,Fg-8F.01,16,Папа купил лимонад и килограмм креветок – вечером будет маленькое застолье.
# 8. Question (NULL if none)..
# 9. Answer.
# 10. Whether or not answer was correct (NULL if N/A).
# 11. Time taken to answer..
1637063748,594607752e310b52ca3ed9783f930f44,38,0,Fg-8F.01,16,NULL,7,NULL,4525
# 8. Sentence (or sentence MD5).
1637063748,594607752e310b52ca3ed9783f930f44,14,0,id.mesh.pass.a,4,Хорошее воспитание не мешало грехам водиться за Аркашей. 
# 8. Question (NULL if none)..
# 9. Answer.
# 10. Whether or not answer was correct (NULL if N/A).
# 11. Time taken to answer..
1637063748,594607752e310b52ca3ed9783f930f44,14,0,id.mesh.pass.a,4,NULL,3,NULL,4911
# 8. Sentence (or sentence MD5).
1637063748,594607752e310b52ca3ed9783f930f44,54,0,Fu-8F.01,24,Нике явно не нравилось вечеринке%2C у неё болела голова и она поскорее хотела пойдёт домой.
# 8. Question (NULL if none)..
# 9. Answer.
# 10. Whether or not answer was correct (NULL if N/A).
# 11. Time taken to answer..
1637063748,594607752e310b52ca3ed9783f930f44,54,0,Fu-8F.01,24,NULL,1,NULL,7824
# 8. Sentence (or sentence MD5).
1637063748,594607752e310b52ca3ed9783f930f44,25,0,Fg-1F.02,9,Меня пригласили на выставку%2C посвященную русским супрематистам%2C но мне совсем не хотелось идти. 
# 8. Question (NULL if none)..
# 9. Answer.
# 10. Whether or not answer was correct (NULL if N/A).
# 11. Time taken to answer..
1637063748,594607752e310b52ca3ed9783f930f44,25,0,Fg-1F.02,9,NULL,7,NULL,5840
# 8. Sentence (or sentence MD5).
1637063748,594607752e310b52ca3ed9783f930f44,9,0,id.zast.act.b,1,Напряженное молчание заставляло атмосферу сгущаться сильнее и сильнее. 
# 8. Question (NULL if none)..
# 9. Answer.
# 10. Whether or not answer was correct (NULL if N/A).
# 11. Time taken to answer..
1637063748,594607752e310b52ca3ed9783f930f44,9,0,id.zast.act.b,1,NULL,1,NULL,4963
# 8. Sentence (or sentence MD5).
1637063748,594607752e310b52ca3ed9783f930f44,50,0,Fu-6F.01,22,На стене висел акварельные этюды%2C исчерканные углевым карандашом для придания глубины%2C карта Израиля и круглыми часы. 
# 8. Question (NULL if none)..
# 9. Answer.
# 10. Whether or not answer was correct (NULL if N/A).
# 11. Time taken to answer..
1637063748,594607752e310b52ca3ed9783f930f44,50,0,Fu-6F.01,22,NULL,1,NULL,4600
# 8. Sentence (or sentence MD5).
1637063748,594607752e310b52ca3ed9783f930f44,30,0,Fg-4F.01,12,Химия так плохо давалась Насте%2C что пришлось нанять репетитора – студента 4 курса МГУ. 
# 8. Question (NULL if none)..
# 9. Answer.
# 10. Whether or not answer was correct (NULL if N/A).
# 11. Time taken to answer..
1637063748,594607752e310b52ca3ed9783f930f44,30,0,Fg-4F.01,12,NULL,7,NULL,6930
# 8. Sentence (or sentence MD5).
1637063748,594607752e310b52ca3ed9783f930f44,17,0,id.pozv.act.b,5,В команде проекта собрались отличные компетентные люди%2C но отсутствие чётких указаний от руководителя всё никак не позволяло льду тронуться.
# 8. Question (NULL if none)..
# 9. Answer.
# 10. Whether or not answer was correct (NULL if N/A).
# 11. Time taken to answer..
1637063748,594607752e310b52ca3ed9783f930f44,17,0,id.pozv.act.b,5,NULL,7,NULL,9730
# 8. Sentence (or sentence MD5).
1637063748,594607752e310b52ca3ed9783f930f44,41,0,Fu-1F.02,17,Все были взволнованы после ухода Петра Степановича%2C даже Лизе. 
# 8. Question (NULL if none)..
# 9. Answer.
# 10. Whether or not answer was correct (NULL if N/A).
# 11. Time taken to answer..
1637063748,594607752e310b52ca3ed9783f930f44,41,0,Fu-1F.02,17,NULL,1,NULL,5081
# 8. Sentence (or sentence MD5).
1637063748,594607752e310b52ca3ed9783f930f44,34,0,Fg-6F.01,14,Никто не заставляет Витю просыпаться в шесть утра%2C он сам поднимается и идет на пробежку. 
# 8. Question (NULL if none)..
# 9. Answer.
# 10. Whether or not answer was correct (NULL if N/A).
# 11. Time taken to answer..
1637063748,594607752e310b52ca3ed9783f930f44,34,0,Fg-6F.01,14,NULL,7,NULL,5585
# 8. Sentence (or sentence MD5).
1637063748,594607752e310b52ca3ed9783f930f44,22,0,id.pomo.pass.a,8,Новые запретительные меры помогли гайкам закрутиться ещё сильнее. 
# 8. Question (NULL if none)..
# 9. Answer.
# 10. Whether or not answer was correct (NULL if N/A).
# 11. Time taken to answer..
1637063748,594607752e310b52ca3ed9783f930f44,22,0,id.pomo.pass.a,8,NULL,1,NULL,6821
# 8. Sentence (or sentence MD5).
1637063748,594607752e310b52ca3ed9783f930f44,45,0,Fu-3F.02,19,Больше всего маленький Ваня боялся темноты%2C и поэтому света засыпал без никогда. 
# 8. Question (NULL if none)..
# 9. Answer.
# 10. Whether or not answer was correct (NULL if N/A).
# 11. Time taken to answer..
1637063748,594607752e310b52ca3ed9783f930f44,45,0,Fu-3F.02,19,NULL,1,NULL,9784
# 8. Sentence (or sentence MD5).
1637063748,594607752e310b52ca3ed9783f930f44,29,0,Fg-3F.02,11,Курины уехали на дачу на две недели%2C и до них теперь не дозвонишься.
# 8. Question (NULL if none)..
# 9. Answer.
# 10. Whether or not answer was correct (NULL if N/A).
# 11. Time taken to answer..
1637063748,594607752e310b52ca3ed9783f930f44,29,0,Fg-3F.02,11,NULL,7,NULL,6273
# 8. Sentence (or sentence MD5).
1637063748,594607752e310b52ca3ed9783f930f44,21,0,id.pomo.act.b,7,Алёна была в ярости%2C когда узнала%2C где муж побывал той ночью%2C но искренние извинения и пышный букет пионов помогли гневу смениться на милость.
# 8. Question (NULL if none)..
# 9. Answer.
# 10. Whether or not answer was correct (NULL if N/A).
# 11. Time taken to answer..
1637063748,594607752e310b52ca3ed9783f930f44,21,0,id.pomo.act.b,7,NULL,5,NULL,11059
# 8. Sentence (or sentence MD5).
1637063748,594607752e310b52ca3ed9783f930f44,49,0,Fu-5F.02,21,Рыбу здесь запрещено ловил сетями и пугал бы взрывчаткой.
# 8. Question (NULL if none)..
# 9. Answer.
# 10. Whether or not answer was correct (NULL if N/A).
# 11. Time taken to answer..
1637063748,594607752e310b52ca3ed9783f930f44,49,0,Fu-5F.02,21,NULL,1,NULL,4365
# 8. Sentence (or sentence MD5).
1637063748,594607752e310b52ca3ed9783f930f44,33,0,Fg-5F.02,13,Девчонки столпились у окна%2C чтобы посмотреть на двойную радугу%2C но никак не могли её разглядеть.
# 8. Question (NULL if none)..
# 9. Answer.
# 10. Whether or not answer was correct (NULL if N/A).
# 11. Time taken to answer..
1637063748,594607752e310b52ca3ed9783f930f44,33,0,Fg-5F.02,13,NULL,7,NULL,9248
# 8. Sentence (or sentence MD5).
1637063748,594607752e310b52ca3ed9783f930f44,18,0,id.pozv.pass.a,6,Серёжка думал%2C поселить ли у себя в комнате домашнюю жабу%2C но внезапное появление отца позволило её судьбе решиться мгновенно – она была выдворена на улицу.
# 8. Question (NULL if none)..
# 9. Answer.
# 10. Whether or not answer was correct (NULL if N/A).
# 11. Time taken to answer..
1637063748,594607752e310b52ca3ed9783f930f44,18,0,id.pozv.pass.a,6,NULL,5,NULL,19488
# 8. Sentence (or sentence MD5).
1637063748,594607752e310b52ca3ed9783f930f44,53,0,Fu-7F.02,23,Дойдя до вертолётной площадки%2C мы повернулись назад и увидели закат холодное осеннего солнце.
# 8. Question (NULL if none)..
# 9. Answer.
# 10. Whether or not answer was correct (NULL if N/A).
# 11. Time taken to answer..
1637063748,594607752e310b52ca3ed9783f930f44,53,0,Fu-7F.02,23,NULL,1,NULL,14713
# 8. Sentence (or sentence MD5).
1637063748,594607752e310b52ca3ed9783f930f44,26,0,Fg-2F.01,10,Алёше уже не нужны костыли – его нога совсем зажила. 
# 8. Question (NULL if none)..
# 9. Answer.
# 10. Whether or not answer was correct (NULL if N/A).
# 11. Time taken to answer..
1637063748,594607752e310b52ca3ed9783f930f44,26,0,Fg-2F.01,10,NULL,7,NULL,3509
# 8. Sentence (or sentence MD5).
1637063748,594607752e310b52ca3ed9783f930f44,10,0,id.zast.pass.a,2,Приход в администрацию нового руководства заставил декорации смениться.
# 8. Question (NULL if none)..
# 9. Answer.
# 10. Whether or not answer was correct (NULL if N/A).
# 11. Time taken to answer..
1637063748,594607752e310b52ca3ed9783f930f44,10,0,id.zast.pass.a,2,NULL,7,NULL,4181
# 8. Sentence (or sentence MD5).
1637063748,594607752e310b52ca3ed9783f930f44,42,0,Fu-2F.01,18,У меня никогда не было музыкальных способностей%2C но я отличалась склонностью рисованием. 
# 8. Question (NULL if none)..
# 9. Answer.
# 10. Whether or not answer was correct (NULL if N/A).
# 11. Time taken to answer..
1637063748,594607752e310b52ca3ed9783f930f44,42,0,Fu-2F.01,18,NULL,1,NULL,5529
# 8. Sentence (or sentence MD5).
1637063748,594607752e310b52ca3ed9783f930f44,37,0,Fg-7F.02,15,Новосибирск оказался вовсе не таким%2C каким Лиза его себе представляла.
# 8. Question (NULL if none)..
# 9. Answer.
# 10. Whether or not answer was correct (NULL if N/A).
# 11. Time taken to answer..
1637063748,594607752e310b52ca3ed9783f930f44,37,0,Fg-7F.02,15,NULL,7,NULL,6915
# 8. Sentence (or sentence MD5).
1637063748,594607752e310b52ca3ed9783f930f44,56,0,hiddenCompletionCode,NULL,LIR5526180641
#
# Results on Wed, 17 Nov 2021 15:34:26 GMT
# USER AGENT: Mozilla/5.0 (Linux; Android 10; YAL-L21) AppleWebKit/537.36 (KHTML, like Gecko) Chrome/95.0.4638.74 Mobile Safari/537.36
# Design number was non-random = 4
#
# Columns below this comment are as follows:
# 1. Results reception time.
# 2. MD5 hash of participant's IP address.
# 3. Controller name.
# 4. Order number of item.
# 5. Inner element number.
# 6. Label.
# 7. Latin Square Group.
# 8. Sentence (or sentence MD5).
1637163266,f39027d9ea86ae47d12f2de08710639b,4,0,practice1,NULL,Андрей опоздал на поезд и очень расстроился.
# 8. Question (NULL if none)..
# 9. Answer.
# 10. Whether or not answer was correct (NULL if N/A).
# 11. Time taken to answer..
1637163266,f39027d9ea86ae47d12f2de08710639b,4,0,practice1,NULL,NULL,7,NULL,4384
# 8. Sentence (or sentence MD5).
1637163266,f39027d9ea86ae47d12f2de08710639b,6,0,practice2,NULL,Буйный заросли крапива выросла домом за.
# 8. Question (NULL if none)..
# 9. Answer.
# 10. Whether or not answer was correct (NULL if N/A).
# 11. Time taken to answer..
1637163266,f39027d9ea86ae47d12f2de08710639b,6,0,practice2,NULL,NULL,1,NULL,3729
# 8. Sentence (or sentence MD5).
1637163266,f39027d9ea86ae47d12f2de08710639b,15,0,id.mesh.pass.b,4,Родительский контроль должен мешать головам детей забиваться чушью%2C которую они могут увидеть в интернете.
# 8. Question (NULL if none)..
# 9. Answer.
# 10. Whether or not answer was correct (NULL if N/A).
# 11. Time taken to answer..
1637163266,f39027d9ea86ae47d12f2de08710639b,15,0,id.mesh.pass.b,4,NULL,3,NULL,12358
# 8. Sentence (or sentence MD5).
1637163266,f39027d9ea86ae47d12f2de08710639b,32,0,Fg-5F.01,13,На поле рядом с моим домом уже давно ничего не выращивают. 
# 8. Question (NULL if none)..
# 9. Answer.
# 10. Whether or not answer was correct (NULL if N/A).
# 11. Time taken to answer..
1637163266,f39027d9ea86ae47d12f2de08710639b,32,0,Fg-5F.01,13,NULL,7,NULL,5401
# 8. Sentence (or sentence MD5).
1637163266,f39027d9ea86ae47d12f2de08710639b,47,0,Fu-4F.02,20,Один наушник нашлись в углу прихожей%2C а другой – под тумбочке. 
# 8. Question (NULL if none)..
# 9. Answer.
# 10. Whether or not answer was correct (NULL if N/A).
# 11. Time taken to answer..
1637163266,f39027d9ea86ae47d12f2de08710639b,47,0,Fu-4F.02,20,NULL,1,NULL,3794
# 8. Sentence (or sentence MD5).
1637163266,f39027d9ea86ae47d12f2de08710639b,16,0,id.pozv.act.a,5,Бесконечные промедления никак не позволяли делу сдвинуться с мёртвой точки.
# 8. Question (NULL if none)..
# 9. Answer.
# 10. Whether or not answer was correct (NULL if N/A).
# 11. Time taken to answer..
1637163266,f39027d9ea86ae47d12f2de08710639b,16,0,id.pozv.act.a,5,NULL,5,NULL,4376
# 8. Sentence (or sentence MD5).
1637163266,f39027d9ea86ae47d12f2de08710639b,28,0,Fg-3F.01,11,Мама надела сапоги%2C чёрное пальто%2C накинула на голову подаренный отцом шелковый платок и вышла во двор. 
# 8. Question (NULL if none)..
# 9. Answer.
# 10. Whether or not answer was correct (NULL if N/A).
# 11. Time taken to answer..
1637163266,f39027d9ea86ae47d12f2de08710639b,28,0,Fg-3F.01,11,NULL,7,NULL,5242
# 8. Sentence (or sentence MD5).
1637163266,f39027d9ea86ae47d12f2de08710639b,40,0,Fu-1F.01,17,Анечка совсем не хотела есть суп%2C потому что терпеть не могло вареный луком. 
# 8. Question (NULL if none)..
# 9. Answer.
# 10. Whether or not answer was correct (NULL if N/A).
# 11. Time taken to answer..
1637163266,f39027d9ea86ae47d12f2de08710639b,40,0,Fu-1F.01,17,NULL,1,NULL,4611
# 8. Sentence (or sentence MD5).
1637163266,f39027d9ea86ae47d12f2de08710639b,12,0,id.mesh.act.a,3,Мой день рождения проходил отлично%2C однако праздник не мешал кошкам скрести на душе. 
# 8. Question (NULL if none)..
# 9. Answer.
# 10. Whether or not answer was correct (NULL if N/A).
# 11. Time taken to answer..
1637163266,f39027d9ea86ae47d12f2de08710639b,12,0,id.mesh.act.a,3,NULL,4,NULL,6360
# 8. Sentence (or sentence MD5).
1637163266,f39027d9ea86ae47d12f2de08710639b,27,0,Fg-2F.02,10,Сколько он ни пытался%2C не даётся ему сербский язык – то ли дело итальянский.
# 8. Question (NULL if none)..
# 9. Answer.
# 10. Whether or not answer was correct (NULL if N/A).
# 11. Time taken to answer..
1637163266,f39027d9ea86ae47d12f2de08710639b,27,0,Fg-2F.02,10,NULL,7,NULL,2876
# 8. Sentence (or sentence MD5).
1637163266,f39027d9ea86ae47d12f2de08710639b,52,0,Fu-7F.01,23,Со второго ряда уже было лектора плохо слышный%2C а до задних парт доходило еле-еле.
# 8. Question (NULL if none)..
# 9. Answer.
# 10. Whether or not answer was correct (NULL if N/A).
# 11. Time taken to answer..
1637163266,f39027d9ea86ae47d12f2de08710639b,52,0,Fu-7F.01,23,NULL,1,NULL,2581
# 8. Sentence (or sentence MD5).
1637163266,f39027d9ea86ae47d12f2de08710639b,23,0,id.pomo.pass.b,8,Дружелюбный настрой Костиных новых знакомых и бутылка хорошего полусухого вина помогли льду растопиться быстро и легко.
# 8. Question (NULL if none)..
# 9. Answer.
# 10. Whether or not answer was correct (NULL if N/A).
# 11. Time taken to answer..
1637163266,f39027d9ea86ae47d12f2de08710639b,23,0,id.pomo.pass.b,8,NULL,4,NULL,5833
# 8. Sentence (or sentence MD5).
1637163266,f39027d9ea86ae47d12f2de08710639b,31,0,Fg-4F.02,12,Римма боится собак%2C да так%2C что может в обморок упасть%2C если Рекс на неё зарычит.
# 8. Question (NULL if none)..
# 9. Answer.
# 10. Whether or not answer was correct (NULL if N/A).
# 11. Time taken to answer..
1637163266,f39027d9ea86ae47d12f2de08710639b,31,0,Fg-4F.02,12,NULL,7,NULL,2797
# 8. Sentence (or sentence MD5).
1637163266,f39027d9ea86ae47d12f2de08710639b,48,0,Fu-5F.01,21,Ты правда научился читать всего в три лет?
# 8. Question (NULL if none)..
# 9. Answer.
# 10. Whether or not answer was correct (NULL if N/A).
# 11. Time taken to answer..
1637163266,f39027d9ea86ae47d12f2de08710639b,48,0,Fu-5F.01,21,NULL,1,NULL,2036
# 8. Sentence (or sentence MD5).
1637163266,f39027d9ea86ae47d12f2de08710639b,11,0,id.zast.pass.b,2,Хватит учить Пашу писать стихи – заставляешь бумагу мараться почем зря.
# 8. Question (NULL if none)..
# 9. Answer.
# 10. Whether or not answer was correct (NULL if N/A).
# 11. Time taken to answer..
1637163266,f39027d9ea86ae47d12f2de08710639b,11,0,id.zast.pass.b,2,NULL,2,NULL,7448
# 8. Sentence (or sentence MD5).
1637163266,f39027d9ea86ae47d12f2de08710639b,39,0,Fg-8F.02,16,Каждый раз%2C когда я прохожу мимо памятника Ленину%2C мне кажется%2C что он шатается.
# 8. Question (NULL if none)..
# 9. Answer.
# 10. Whether or not answer was correct (NULL if N/A).
# 11. Time taken to answer..
1637163266,f39027d9ea86ae47d12f2de08710639b,39,0,Fg-8F.02,16,NULL,7,NULL,3234
# 8. Sentence (or sentence MD5).
1637163266,f39027d9ea86ae47d12f2de08710639b,51,0,Fu-6F.02,22,Виктор опять не принес сочинение на урок литературы%2C и учитель снова начал за отчитывать его возмутительное неприлежание.
# 8. Question (NULL if none)..
# 9. Answer.
# 10. Whether or not answer was correct (NULL if N/A).
# 11. Time taken to answer..
1637163266,f39027d9ea86ae47d12f2de08710639b,51,0,Fu-6F.02,22,NULL,1,NULL,4654
# 8. Sentence (or sentence MD5).
1637163266,f39027d9ea86ae47d12f2de08710639b,19,0,id.pozv.pass.b,6,Школьная директриса Лариса Эдуардовна была сторонницей индивидуального подхода к ученикам и не позволяла ярлыкам вешаться без разбора. 
# 8. Question (NULL if none)..
# 9. Answer.
# 10. Whether or not answer was correct (NULL if N/A).
# 11. Time taken to answer..
1637163266,f39027d9ea86ae47d12f2de08710639b,19,0,id.pozv.pass.b,6,NULL,3,NULL,6150
# 8. Sentence (or sentence MD5).
1637163266,f39027d9ea86ae47d12f2de08710639b,35,0,Fg-6F.02,14,Нет ничего красивее блестящих на солнце луж.
# 8. Question (NULL if none)..
# 9. Answer.
# 10. Whether or not answer was correct (NULL if N/A).
# 11. Time taken to answer..
1637163266,f39027d9ea86ae47d12f2de08710639b,35,0,Fg-6F.02,14,NULL,7,NULL,2118
# 8. Sentence (or sentence MD5).
1637163266,f39027d9ea86ae47d12f2de08710639b,55,0,Fu-8F.02,24,Как настоящая творческая личность%2C Никитка скоро украсил обои в прихожей при помощью своих новых фломастерами.
# 8. Question (NULL if none)..
# 9. Answer.
# 10. Whether or not answer was correct (NULL if N/A).
# 11. Time taken to answer..
1637163266,f39027d9ea86ae47d12f2de08710639b,55,0,Fu-8F.02,24,NULL,1,NULL,3265
# 8. Sentence (or sentence MD5).
1637163266,f39027d9ea86ae47d12f2de08710639b,20,0,id.pomo.act.a,7,Следователи были в полном замешательстве%2C но рассказ очевидца помог всему встать на свои места. 
# 8. Question (NULL if none)..
# 9. Answer.
# 10. Whether or not answer was correct (NULL if N/A).
# 11. Time taken to answer..
1637163266,f39027d9ea86ae47d12f2de08710639b,20,0,id.pomo.act.a,7,NULL,4,NULL,5700
# 8. Sentence (or sentence MD5).
1637163266,f39027d9ea86ae47d12f2de08710639b,24,0,Fg-1F.01,9,Если бы не дождь с градом%2C я бы пошла сегодня гулять в Петровский парк. 
# 8. Question (NULL if none)..
# 9. Answer.
# 10. Whether or not answer was correct (NULL if N/A).
# 11. Time taken to answer..
1637163266,f39027d9ea86ae47d12f2de08710639b,24,0,Fg-1F.01,9,NULL,7,NULL,3086
# 8. Sentence (or sentence MD5).
1637163266,f39027d9ea86ae47d12f2de08710639b,43,0,Fu-2F.02,18,Если мой рассказ тебя не убедишь%2C поговори с Алисой – она отлично разбирается в людях. 
# 8. Question (NULL if none)..
# 9. Answer.
# 10. Whether or not answer was correct (NULL if N/A).
# 11. Time taken to answer..
1637163266,f39027d9ea86ae47d12f2de08710639b,43,0,Fu-2F.02,18,NULL,1,NULL,3955
# 8. Sentence (or sentence MD5).
1637163266,f39027d9ea86ae47d12f2de08710639b,8,0,id.zast.act.a,1,Очередной провал заставил почву уйти из-под ног молодого предпринимателя – выхода из ситуации не было никакого. 
# 8. Question (NULL if none)..
# 9. Answer.
# 10. Whether or not answer was correct (NULL if N/A).
# 11. Time taken to answer..
1637163266,f39027d9ea86ae47d12f2de08710639b,8,0,id.zast.act.a,1,NULL,7,NULL,4969
# 8. Sentence (or sentence MD5).
1637163266,f39027d9ea86ae47d12f2de08710639b,36,0,Fg-7F.01,15,Квартира в пригороде Москвы дешевле%2C но ежедневно добираться оттуда на работу – большая трата времени. 
# 8. Question (NULL if none)..
# 9. Answer.
# 10. Whether or not answer was correct (NULL if N/A).
# 11. Time taken to answer..
1637163266,f39027d9ea86ae47d12f2de08710639b,36,0,Fg-7F.01,15,NULL,7,NULL,4572
# 8. Sentence (or sentence MD5).
1637163266,f39027d9ea86ae47d12f2de08710639b,44,0,Fu-3F.01,19,Дома холодные полы%2C поэтому бабушка настаивает%2C чтобы гости наденут тапочки. 
# 8. Question (NULL if none)..
# 9. Answer.
# 10. Whether or not answer was correct (NULL if N/A).
# 11. Time taken to answer..
1637163266,f39027d9ea86ae47d12f2de08710639b,44,0,Fu-3F.01,19,NULL,1,NULL,3023
# 8. Sentence (or sentence MD5).
1637163266,f39027d9ea86ae47d12f2de08710639b,56,0,hiddenCompletionCode,NULL,LIR9895540904
#
# Results on Wed, 17 Nov 2021 15:35:42 GMT
# USER AGENT: Mozilla/5.0 (Windows NT 10.0; Win64; x64) AppleWebKit/537.36 (KHTML, like Gecko) Chrome/95.0.4638.69 Safari/537.36
# Design number was non-random = 7
#
# Columns below this comment are as follows:
# 1. Results reception time.
# 2. MD5 hash of participant's IP address.
# 3. Controller name.
# 4. Order number of item.
# 5. Inner element number.
# 6. Label.
# 7. Latin Square Group.
# 8. Sentence (or sentence MD5).
1637163342,94dc5a2f2511bd53d930eb1716c77e47,4,0,practice1,NULL,Андрей опоздал на поезд и очень расстроился.
# 8. Question (NULL if none)..
# 9. Answer.
# 10. Whether or not answer was correct (NULL if N/A).
# 11. Time taken to answer..
1637163342,94dc5a2f2511bd53d930eb1716c77e47,4,0,practice1,NULL,NULL,7,NULL,3279
# 8. Sentence (or sentence MD5).
1637163342,94dc5a2f2511bd53d930eb1716c77e47,6,0,practice2,NULL,Буйный заросли крапива выросла домом за.
# 8. Question (NULL if none)..
# 9. Answer.
# 10. Whether or not answer was correct (NULL if N/A).
# 11. Time taken to answer..
1637163342,94dc5a2f2511bd53d930eb1716c77e47,6,0,practice2,NULL,NULL,1,NULL,2257
# 8. Sentence (or sentence MD5).
1637163342,94dc5a2f2511bd53d930eb1716c77e47,45,0,Fu-3F.02,19,Больше всего маленький Ваня боялся темноты%2C и поэтому света засыпал без никогда. 
# 8. Question (NULL if none)..
# 9. Answer.
# 10. Whether or not answer was correct (NULL if N/A).
# 11. Time taken to answer..
1637163342,94dc5a2f2511bd53d930eb1716c77e47,45,0,Fu-3F.02,19,NULL,1,NULL,4305
# 8. Sentence (or sentence MD5).
1637163342,94dc5a2f2511bd53d930eb1716c77e47,21,0,id.pomo.act.b,7,Алёна была в ярости%2C когда узнала%2C где муж побывал той ночью%2C но искренние извинения и пышный букет пионов помогли гневу смениться на милость.
# 8. Question (NULL if none)..
# 9. Answer.
# 10. Whether or not answer was correct (NULL if N/A).
# 11. Time taken to answer..
1637163342,94dc5a2f2511bd53d930eb1716c77e47,21,0,id.pomo.act.b,7,NULL,7,NULL,9363
# 8. Sentence (or sentence MD5).
1637163342,94dc5a2f2511bd53d930eb1716c77e47,34,0,Fg-6F.01,14,Никто не заставляет Витю просыпаться в шесть утра%2C он сам поднимается и идет на пробежку. 
# 8. Question (NULL if none)..
# 9. Answer.
# 10. Whether or not answer was correct (NULL if N/A).
# 11. Time taken to answer..
1637163342,94dc5a2f2511bd53d930eb1716c77e47,34,0,Fg-6F.01,14,NULL,7,NULL,5373
# 8. Sentence (or sentence MD5).
1637163342,94dc5a2f2511bd53d930eb1716c77e47,46,0,Fu-4F.01,20,Дедлайн стремительно приближался%2C а я успевает сделать примерно ничего. 
# 8. Question (NULL if none)..
# 9. Answer.
# 10. Whether or not answer was correct (NULL if N/A).
# 11. Time taken to answer..
1637163342,94dc5a2f2511bd53d930eb1716c77e47,46,0,Fu-4F.01,20,NULL,1,NULL,4203
# 8. Sentence (or sentence MD5).
1637163342,94dc5a2f2511bd53d930eb1716c77e47,17,0,id.pozv.act.b,5,В команде проекта собрались отличные компетентные люди%2C но отсутствие чётких указаний от руководителя всё никак не позволяло льду тронуться.
# 8. Question (NULL if none)..
# 9. Answer.
# 10. Whether or not answer was correct (NULL if N/A).
# 11. Time taken to answer..
1637163342,94dc5a2f2511bd53d930eb1716c77e47,17,0,id.pozv.act.b,5,NULL,7,NULL,7299
# 8. Sentence (or sentence MD5).
1637163342,94dc5a2f2511bd53d930eb1716c77e47,38,0,Fg-8F.01,16,Папа купил лимонад и килограмм креветок – вечером будет маленькое застолье.
# 8. Question (NULL if none)..
# 9. Answer.
# 10. Whether or not answer was correct (NULL if N/A).
# 11. Time taken to answer..
1637163342,94dc5a2f2511bd53d930eb1716c77e47,38,0,Fg-8F.01,16,NULL,7,NULL,4663
# 8. Sentence (or sentence MD5).
1637163342,94dc5a2f2511bd53d930eb1716c77e47,41,0,Fu-1F.02,17,Все были взволнованы после ухода Петра Степановича%2C даже Лизе. 
# 8. Question (NULL if none)..
# 9. Answer.
# 10. Whether or not answer was correct (NULL if N/A).
# 11. Time taken to answer..
1637163342,94dc5a2f2511bd53d930eb1716c77e47,41,0,Fu-1F.02,17,NULL,1,NULL,4809
# 8. Sentence (or sentence MD5).
1637163342,94dc5a2f2511bd53d930eb1716c77e47,22,0,id.pomo.pass.a,8,Новые запретительные меры помогли гайкам закрутиться ещё сильнее. 
# 8. Question (NULL if none)..
# 9. Answer.
# 10. Whether or not answer was correct (NULL if N/A).
# 11. Time taken to answer..
1637163342,94dc5a2f2511bd53d930eb1716c77e47,22,0,id.pomo.pass.a,8,NULL,6,NULL,8405
# 8. Sentence (or sentence MD5).
1637163342,94dc5a2f2511bd53d930eb1716c77e47,25,0,Fg-1F.02,9,Меня пригласили на выставку%2C посвященную русским супрематистам%2C но мне совсем не хотелось идти. 
# 8. Question (NULL if none)..
# 9. Answer.
# 10. Whether or not answer was correct (NULL if N/A).
# 11. Time taken to answer..
1637163342,94dc5a2f2511bd53d930eb1716c77e47,25,0,Fg-1F.02,9,NULL,7,NULL,4791
# 8. Sentence (or sentence MD5).
1637163342,94dc5a2f2511bd53d930eb1716c77e47,53,0,Fu-7F.02,23,Дойдя до вертолётной площадки%2C мы повернулись назад и увидели закат холодное осеннего солнце.
# 8. Question (NULL if none)..
# 9. Answer.
# 10. Whether or not answer was correct (NULL if N/A).
# 11. Time taken to answer..
1637163342,94dc5a2f2511bd53d930eb1716c77e47,53,0,Fu-7F.02,23,NULL,1,NULL,4143
# 8. Sentence (or sentence MD5).
1637163342,94dc5a2f2511bd53d930eb1716c77e47,9,0,id.zast.act.b,1,Напряженное молчание заставляло атмосферу сгущаться сильнее и сильнее. 
# 8. Question (NULL if none)..
# 9. Answer.
# 10. Whether or not answer was correct (NULL if N/A).
# 11. Time taken to answer..
1637163342,94dc5a2f2511bd53d930eb1716c77e47,9,0,id.zast.act.b,1,NULL,6,NULL,6971
# 8. Sentence (or sentence MD5).
1637163342,94dc5a2f2511bd53d930eb1716c77e47,30,0,Fg-4F.01,12,Химия так плохо давалась Насте%2C что пришлось нанять репетитора – студента 4 курса МГУ. 
# 8. Question (NULL if none)..
# 9. Answer.
# 10. Whether or not answer was correct (NULL if N/A).
# 11. Time taken to answer..
1637163342,94dc5a2f2511bd53d930eb1716c77e47,30,0,Fg-4F.01,12,NULL,7,NULL,4205
# 8. Sentence (or sentence MD5).
1637163342,94dc5a2f2511bd53d930eb1716c77e47,54,0,Fu-8F.01,24,Нике явно не нравилось вечеринке%2C у неё болела голова и она поскорее хотела пойдёт домой.
# 8. Question (NULL if none)..
# 9. Answer.
# 10. Whether or not answer was correct (NULL if N/A).
# 11. Time taken to answer..
1637163342,94dc5a2f2511bd53d930eb1716c77e47,54,0,Fu-8F.01,24,NULL,1,NULL,4104
# 8. Sentence (or sentence MD5).
1637163342,94dc5a2f2511bd53d930eb1716c77e47,13,0,id.mesh.act.b,3,Никакие утешения не мешали слезам литься в три ручья – потерялась Анина любимая плюшевая собачка.
# 8. Question (NULL if none)..
# 9. Answer.
# 10. Whether or not answer was correct (NULL if N/A).
# 11. Time taken to answer..
1637163342,94dc5a2f2511bd53d930eb1716c77e47,13,0,id.mesh.act.b,3,NULL,7,NULL,7162
# 8. Sentence (or sentence MD5).
1637163342,94dc5a2f2511bd53d930eb1716c77e47,29,0,Fg-3F.02,11,Курины уехали на дачу на две недели%2C и до них теперь не дозвонишься.
# 8. Question (NULL if none)..
# 9. Answer.
# 10. Whether or not answer was correct (NULL if N/A).
# 11. Time taken to answer..
1637163342,94dc5a2f2511bd53d930eb1716c77e47,29,0,Fg-3F.02,11,NULL,7,NULL,10431
# 8. Sentence (or sentence MD5).
1637163342,94dc5a2f2511bd53d930eb1716c77e47,50,0,Fu-6F.01,22,На стене висел акварельные этюды%2C исчерканные углевым карандашом для придания глубины%2C карта Израиля и круглыми часы. 
# 8. Question (NULL if none)..
# 9. Answer.
# 10. Whether or not answer was correct (NULL if N/A).
# 11. Time taken to answer..
1637163342,94dc5a2f2511bd53d930eb1716c77e47,50,0,Fu-6F.01,22,NULL,1,NULL,7063
# 8. Sentence (or sentence MD5).
1637163342,94dc5a2f2511bd53d930eb1716c77e47,14,0,id.mesh.pass.a,4,Хорошее воспитание не мешало грехам водиться за Аркашей. 
# 8. Question (NULL if none)..
# 9. Answer.
# 10. Whether or not answer was correct (NULL if N/A).
# 11. Time taken to answer..
1637163342,94dc5a2f2511bd53d930eb1716c77e47,14,0,id.mesh.pass.a,4,NULL,5,NULL,5056
# 8. Sentence (or sentence MD5).
1637163342,94dc5a2f2511bd53d930eb1716c77e47,26,0,Fg-2F.01,10,Алёше уже не нужны костыли – его нога совсем зажила. 
# 8. Question (NULL if none)..
# 9. Answer.
# 10. Whether or not answer was correct (NULL if N/A).
# 11. Time taken to answer..
1637163342,94dc5a2f2511bd53d930eb1716c77e47,26,0,Fg-2F.01,10,NULL,7,NULL,2001
# 8. Sentence (or sentence MD5).
1637163342,94dc5a2f2511bd53d930eb1716c77e47,49,0,Fu-5F.02,21,Рыбу здесь запрещено ловил сетями и пугал бы взрывчаткой.
# 8. Question (NULL if none)..
# 9. Answer.
# 10. Whether or not answer was correct (NULL if N/A).
# 11. Time taken to answer..
1637163342,94dc5a2f2511bd53d930eb1716c77e47,49,0,Fu-5F.02,21,NULL,1,NULL,5047
# 8. Sentence (or sentence MD5).
1637163342,94dc5a2f2511bd53d930eb1716c77e47,10,0,id.zast.pass.a,2,Приход в администрацию нового руководства заставил декорации смениться.
# 8. Question (NULL if none)..
# 9. Answer.
# 10. Whether or not answer was correct (NULL if N/A).
# 11. Time taken to answer..
1637163342,94dc5a2f2511bd53d930eb1716c77e47,10,0,id.zast.pass.a,2,NULL,6,NULL,5848
# 8. Sentence (or sentence MD5).
1637163342,94dc5a2f2511bd53d930eb1716c77e47,33,0,Fg-5F.02,13,Девчонки столпились у окна%2C чтобы посмотреть на двойную радугу%2C но никак не могли её разглядеть.
# 8. Question (NULL if none)..
# 9. Answer.
# 10. Whether or not answer was correct (NULL if N/A).
# 11. Time taken to answer..
1637163342,94dc5a2f2511bd53d930eb1716c77e47,33,0,Fg-5F.02,13,NULL,7,NULL,3594
# 8. Sentence (or sentence MD5).
1637163342,94dc5a2f2511bd53d930eb1716c77e47,42,0,Fu-2F.01,18,У меня никогда не было музыкальных способностей%2C но я отличалась склонностью рисованием. 
# 8. Question (NULL if none)..
# 9. Answer.
# 10. Whether or not answer was correct (NULL if N/A).
# 11. Time taken to answer..
1637163342,94dc5a2f2511bd53d930eb1716c77e47,42,0,Fu-2F.01,18,NULL,1,NULL,3909
# 8. Sentence (or sentence MD5).
1637163342,94dc5a2f2511bd53d930eb1716c77e47,18,0,id.pozv.pass.a,6,Серёжка думал%2C поселить ли у себя в комнате домашнюю жабу%2C но внезапное появление отца позволило её судьбе решиться мгновенно – она была выдворена на улицу.
# 8. Question (NULL if none)..
# 9. Answer.
# 10. Whether or not answer was correct (NULL if N/A).
# 11. Time taken to answer..
1637163342,94dc5a2f2511bd53d930eb1716c77e47,18,0,id.pozv.pass.a,6,NULL,4,NULL,8354
# 8. Sentence (or sentence MD5).
1637163342,94dc5a2f2511bd53d930eb1716c77e47,37,0,Fg-7F.02,15,Новосибирск оказался вовсе не таким%2C каким Лиза его себе представляла.
# 8. Question (NULL if none)..
# 9. Answer.
# 10. Whether or not answer was correct (NULL if N/A).
# 11. Time taken to answer..
1637163342,94dc5a2f2511bd53d930eb1716c77e47,37,0,Fg-7F.02,15,NULL,7,NULL,3612
# 8. Sentence (or sentence MD5).
1637163342,94dc5a2f2511bd53d930eb1716c77e47,56,0,hiddenCompletionCode,NULL,LIR3143327325
#
# Results on Wed, 17 Nov 2021 15:37:06 GMT
# USER AGENT: Mozilla/5.0 (X11; Linux x86_64) AppleWebKit/534.24 (KHTML, like Gecko) Chrome/89.0.4389.116 Safari/534.24 XiaoMi/MiuiBrowser/12.15.2-gn
# Design number was non-random = 11
#
# Columns below this comment are as follows:
# 1. Results reception time.
# 2. MD5 hash of participant's IP address.
# 3. Controller name.
# 4. Order number of item.
# 5. Inner element number.
# 6. Label.
# 7. Latin Square Group.
# 8. Sentence (or sentence MD5).
1637163426,6777a4d2ee74bb96eb3ef6e7952c6a70,4,0,practice1,NULL,Андрей опоздал на поезд и очень расстроился.
# 8. Question (NULL if none)..
# 9. Answer.
# 10. Whether or not answer was correct (NULL if N/A).
# 11. Time taken to answer..
1637163426,6777a4d2ee74bb96eb3ef6e7952c6a70,4,0,practice1,NULL,NULL,7,NULL,2931
# 8. Sentence (or sentence MD5).
1637163426,6777a4d2ee74bb96eb3ef6e7952c6a70,6,0,practice2,NULL,Буйный заросли крапива выросла домом за.
# 8. Question (NULL if none)..
# 9. Answer.
# 10. Whether or not answer was correct (NULL if N/A).
# 11. Time taken to answer..
1637163426,6777a4d2ee74bb96eb3ef6e7952c6a70,6,0,practice2,NULL,NULL,1,NULL,2951
# 8. Sentence (or sentence MD5).
1637163426,6777a4d2ee74bb96eb3ef6e7952c6a70,41,0,Fu-1F.02,17,Все были взволнованы после ухода Петра Степановича%2C даже Лизе. 
# 8. Question (NULL if none)..
# 9. Answer.
# 10. Whether or not answer was correct (NULL if N/A).
# 11. Time taken to answer..
1637163426,6777a4d2ee74bb96eb3ef6e7952c6a70,41,0,Fu-1F.02,17,NULL,1,NULL,3075
# 8. Sentence (or sentence MD5).
1637163426,6777a4d2ee74bb96eb3ef6e7952c6a70,14,0,id.mesh.pass.a,4,Хорошее воспитание не мешало грехам водиться за Аркашей. 
# 8. Question (NULL if none)..
# 9. Answer.
# 10. Whether or not answer was correct (NULL if N/A).
# 11. Time taken to answer..
1637163426,6777a4d2ee74bb96eb3ef6e7952c6a70,14,0,id.mesh.pass.a,4,NULL,1,NULL,2803
# 8. Sentence (or sentence MD5).
1637163426,6777a4d2ee74bb96eb3ef6e7952c6a70,37,0,Fg-7F.02,15,Новосибирск оказался вовсе не таким%2C каким Лиза его себе представляла.
# 8. Question (NULL if none)..
# 9. Answer.
# 10. Whether or not answer was correct (NULL if N/A).
# 11. Time taken to answer..
1637163426,6777a4d2ee74bb96eb3ef6e7952c6a70,37,0,Fg-7F.02,15,NULL,7,NULL,2910
# 8. Sentence (or sentence MD5).
1637163426,6777a4d2ee74bb96eb3ef6e7952c6a70,53,0,Fu-7F.02,23,Дойдя до вертолётной площадки%2C мы повернулись назад и увидели закат холодное осеннего солнце.
# 8. Question (NULL if none)..
# 9. Answer.
# 10. Whether or not answer was correct (NULL if N/A).
# 11. Time taken to answer..
1637163426,6777a4d2ee74bb96eb3ef6e7952c6a70,53,0,Fu-7F.02,23,NULL,1,NULL,6488
# 8. Sentence (or sentence MD5).
1637163426,6777a4d2ee74bb96eb3ef6e7952c6a70,13,0,id.mesh.act.b,3,Никакие утешения не мешали слезам литься в три ручья – потерялась Анина любимая плюшевая собачка.
# 8. Question (NULL if none)..
# 9. Answer.
# 10. Whether or not answer was correct (NULL if N/A).
# 11. Time taken to answer..
1637163426,6777a4d2ee74bb96eb3ef6e7952c6a70,13,0,id.mesh.act.b,3,NULL,7,NULL,8053
# 8. Sentence (or sentence MD5).
1637163426,6777a4d2ee74bb96eb3ef6e7952c6a70,26,0,Fg-2F.01,10,Алёше уже не нужны костыли – его нога совсем зажила. 
# 8. Question (NULL if none)..
# 9. Answer.
# 10. Whether or not answer was correct (NULL if N/A).
# 11. Time taken to answer..
1637163426,6777a4d2ee74bb96eb3ef6e7952c6a70,26,0,Fg-2F.01,10,NULL,6,NULL,3599
# 8. Sentence (or sentence MD5).
1637163426,6777a4d2ee74bb96eb3ef6e7952c6a70,42,0,Fu-2F.01,18,У меня никогда не было музыкальных способностей%2C но я отличалась склонностью рисованием. 
# 8. Question (NULL if none)..
# 9. Answer.
# 10. Whether or not answer was correct (NULL if N/A).
# 11. Time taken to answer..
1637163426,6777a4d2ee74bb96eb3ef6e7952c6a70,42,0,Fu-2F.01,18,NULL,1,NULL,3825
# 8. Sentence (or sentence MD5).
1637163426,6777a4d2ee74bb96eb3ef6e7952c6a70,21,0,id.pomo.act.b,7,Алёна была в ярости%2C когда узнала%2C где муж побывал той ночью%2C но искренние извинения и пышный букет пионов помогли гневу смениться на милость.
# 8. Question (NULL if none)..
# 9. Answer.
# 10. Whether or not answer was correct (NULL if N/A).
# 11. Time taken to answer..
1637163426,6777a4d2ee74bb96eb3ef6e7952c6a70,21,0,id.pomo.act.b,7,NULL,7,NULL,7426
# 8. Sentence (or sentence MD5).
1637163426,6777a4d2ee74bb96eb3ef6e7952c6a70,38,0,Fg-8F.01,16,Папа купил лимонад и килограмм креветок – вечером будет маленькое застолье.
# 8. Question (NULL if none)..
# 9. Answer.
# 10. Whether or not answer was correct (NULL if N/A).
# 11. Time taken to answer..
1637163426,6777a4d2ee74bb96eb3ef6e7952c6a70,38,0,Fg-8F.01,16,NULL,7,NULL,3295
# 8. Sentence (or sentence MD5).
1637163426,6777a4d2ee74bb96eb3ef6e7952c6a70,45,0,Fu-3F.02,19,Больше всего маленький Ваня боялся темноты%2C и поэтому света засыпал без никогда. 
# 8. Question (NULL if none)..
# 9. Answer.
# 10. Whether or not answer was correct (NULL if N/A).
# 11. Time taken to answer..
1637163426,6777a4d2ee74bb96eb3ef6e7952c6a70,45,0,Fu-3F.02,19,NULL,1,NULL,3646
# 8. Sentence (or sentence MD5).
1637163426,6777a4d2ee74bb96eb3ef6e7952c6a70,17,0,id.pozv.act.b,5,В команде проекта собрались отличные компетентные люди%2C но отсутствие чётких указаний от руководителя всё никак не позволяло льду тронуться.
# 8. Question (NULL if none)..
# 9. Answer.
# 10. Whether or not answer was correct (NULL if N/A).
# 11. Time taken to answer..
1637163426,6777a4d2ee74bb96eb3ef6e7952c6a70,17,0,id.pozv.act.b,5,NULL,7,NULL,6037
# 8. Sentence (or sentence MD5).
1637163426,6777a4d2ee74bb96eb3ef6e7952c6a70,30,0,Fg-4F.01,12,Химия так плохо давалась Насте%2C что пришлось нанять репетитора – студента 4 курса МГУ. 
# 8. Question (NULL if none)..
# 9. Answer.
# 10. Whether or not answer was correct (NULL if N/A).
# 11. Time taken to answer..
1637163426,6777a4d2ee74bb96eb3ef6e7952c6a70,30,0,Fg-4F.01,12,NULL,7,NULL,3744
# 8. Sentence (or sentence MD5).
1637163426,6777a4d2ee74bb96eb3ef6e7952c6a70,49,0,Fu-5F.02,21,Рыбу здесь запрещено ловил сетями и пугал бы взрывчаткой.
# 8. Question (NULL if none)..
# 9. Answer.
# 10. Whether or not answer was correct (NULL if N/A).
# 11. Time taken to answer..
1637163426,6777a4d2ee74bb96eb3ef6e7952c6a70,49,0,Fu-5F.02,21,NULL,1,NULL,3149
# 8. Sentence (or sentence MD5).
1637163426,6777a4d2ee74bb96eb3ef6e7952c6a70,18,0,id.pozv.pass.a,6,Серёжка думал%2C поселить ли у себя в комнате домашнюю жабу%2C но внезапное появление отца позволило её судьбе решиться мгновенно – она была выдворена на улицу.
# 8. Question (NULL if none)..
# 9. Answer.
# 10. Whether or not answer was correct (NULL if N/A).
# 11. Time taken to answer..
1637163426,6777a4d2ee74bb96eb3ef6e7952c6a70,18,0,id.pozv.pass.a,6,NULL,7,NULL,6598
# 8. Sentence (or sentence MD5).
1637163426,6777a4d2ee74bb96eb3ef6e7952c6a70,25,0,Fg-1F.02,9,Меня пригласили на выставку%2C посвященную русским супрематистам%2C но мне совсем не хотелось идти. 
# 8. Question (NULL if none)..
# 9. Answer.
# 10. Whether or not answer was correct (NULL if N/A).
# 11. Time taken to answer..
1637163426,6777a4d2ee74bb96eb3ef6e7952c6a70,25,0,Fg-1F.02,9,NULL,7,NULL,4744
# 8. Sentence (or sentence MD5).
1637163426,6777a4d2ee74bb96eb3ef6e7952c6a70,46,0,Fu-4F.01,20,Дедлайн стремительно приближался%2C а я успевает сделать примерно ничего. 
# 8. Question (NULL if none)..
# 9. Answer.
# 10. Whether or not answer was correct (NULL if N/A).
# 11. Time taken to answer..
1637163426,6777a4d2ee74bb96eb3ef6e7952c6a70,46,0,Fu-4F.01,20,NULL,1,NULL,2848
# 8. Sentence (or sentence MD5).
1637163426,6777a4d2ee74bb96eb3ef6e7952c6a70,10,0,id.zast.pass.a,2,Приход в администрацию нового руководства заставил декорации смениться.
# 8. Question (NULL if none)..
# 9. Answer.
# 10. Whether or not answer was correct (NULL if N/A).
# 11. Time taken to answer..
1637163426,6777a4d2ee74bb96eb3ef6e7952c6a70,10,0,id.zast.pass.a,2,NULL,7,NULL,2985
# 8. Sentence (or sentence MD5).
1637163426,6777a4d2ee74bb96eb3ef6e7952c6a70,29,0,Fg-3F.02,11,Курины уехали на дачу на две недели%2C и до них теперь не дозвонишься.
# 8. Question (NULL if none)..
# 9. Answer.
# 10. Whether or not answer was correct (NULL if N/A).
# 11. Time taken to answer..
1637163426,6777a4d2ee74bb96eb3ef6e7952c6a70,29,0,Fg-3F.02,11,NULL,7,NULL,4037
# 8. Sentence (or sentence MD5).
1637163426,6777a4d2ee74bb96eb3ef6e7952c6a70,50,0,Fu-6F.01,22,На стене висел акварельные этюды%2C исчерканные углевым карандашом для придания глубины%2C карта Израиля и круглыми часы. 
# 8. Question (NULL if none)..
# 9. Answer.
# 10. Whether or not answer was correct (NULL if N/A).
# 11. Time taken to answer..
1637163426,6777a4d2ee74bb96eb3ef6e7952c6a70,50,0,Fu-6F.01,22,NULL,1,NULL,3052
# 8. Sentence (or sentence MD5).
1637163426,6777a4d2ee74bb96eb3ef6e7952c6a70,22,0,id.pomo.pass.a,8,Новые запретительные меры помогли гайкам закрутиться ещё сильнее. 
# 8. Question (NULL if none)..
# 9. Answer.
# 10. Whether or not answer was correct (NULL if N/A).
# 11. Time taken to answer..
1637163426,6777a4d2ee74bb96eb3ef6e7952c6a70,22,0,id.pomo.pass.a,8,NULL,5,NULL,4085
# 8. Sentence (or sentence MD5).
1637163426,6777a4d2ee74bb96eb3ef6e7952c6a70,34,0,Fg-6F.01,14,Никто не заставляет Витю просыпаться в шесть утра%2C он сам поднимается и идет на пробежку. 
# 8. Question (NULL if none)..
# 9. Answer.
# 10. Whether or not answer was correct (NULL if N/A).
# 11. Time taken to answer..
1637163426,6777a4d2ee74bb96eb3ef6e7952c6a70,34,0,Fg-6F.01,14,NULL,7,NULL,3256
# 8. Sentence (or sentence MD5).
1637163426,6777a4d2ee74bb96eb3ef6e7952c6a70,54,0,Fu-8F.01,24,Нике явно не нравилось вечеринке%2C у неё болела голова и она поскорее хотела пойдёт домой.
# 8. Question (NULL if none)..
# 9. Answer.
# 10. Whether or not answer was correct (NULL if N/A).
# 11. Time taken to answer..
1637163426,6777a4d2ee74bb96eb3ef6e7952c6a70,54,0,Fu-8F.01,24,NULL,7,NULL,4210
# 8. Sentence (or sentence MD5).
1637163426,6777a4d2ee74bb96eb3ef6e7952c6a70,9,0,id.zast.act.b,1,Напряженное молчание заставляло атмосферу сгущаться сильнее и сильнее. 
# 8. Question (NULL if none)..
# 9. Answer.
# 10. Whether or not answer was correct (NULL if N/A).
# 11. Time taken to answer..
1637163426,6777a4d2ee74bb96eb3ef6e7952c6a70,9,0,id.zast.act.b,1,NULL,7,NULL,5990
# 8. Sentence (or sentence MD5).
1637163426,6777a4d2ee74bb96eb3ef6e7952c6a70,33,0,Fg-5F.02,13,Девчонки столпились у окна%2C чтобы посмотреть на двойную радугу%2C но никак не могли её разглядеть.
# 8. Question (NULL if none)..
# 9. Answer.
# 10. Whether or not answer was correct (NULL if N/A).
# 11. Time taken to answer..
1637163426,6777a4d2ee74bb96eb3ef6e7952c6a70,33,0,Fg-5F.02,13,NULL,7,NULL,4411
# 8. Sentence (or sentence MD5).
1637163426,6777a4d2ee74bb96eb3ef6e7952c6a70,56,0,hiddenCompletionCode,NULL,LIR3041105986
#
# Results on Wed, 17 Nov 2021 15:41:49 GMT
# USER AGENT: Mozilla/5.0 (Windows NT 10.0; Win64; x64) AppleWebKit/537.36 (KHTML, like Gecko) Chrome/94.0.4606.81 Safari/537.36 OPR/80.0.4170.72
# Design number was non-random = 14
#
# Columns below this comment are as follows:
# 1. Results reception time.
# 2. MD5 hash of participant's IP address.
# 3. Controller name.
# 4. Order number of item.
# 5. Inner element number.
# 6. Label.
# 7. Latin Square Group.
# 8. Sentence (or sentence MD5).
1637163709,b713c277341c573cf53ad6cbb75d0aa5,4,0,practice1,NULL,Андрей опоздал на поезд и очень расстроился.
# 8. Question (NULL if none)..
# 9. Answer.
# 10. Whether or not answer was correct (NULL if N/A).
# 11. Time taken to answer..
1637163709,b713c277341c573cf53ad6cbb75d0aa5,4,0,practice1,NULL,NULL,7,NULL,3722
# 8. Sentence (or sentence MD5).
1637163709,b713c277341c573cf53ad6cbb75d0aa5,6,0,practice2,NULL,Буйный заросли крапива выросла домом за.
# 8. Question (NULL if none)..
# 9. Answer.
# 10. Whether or not answer was correct (NULL if N/A).
# 11. Time taken to answer..
1637163709,b713c277341c573cf53ad6cbb75d0aa5,6,0,practice2,NULL,NULL,1,NULL,3057
# 8. Sentence (or sentence MD5).
1637163709,b713c277341c573cf53ad6cbb75d0aa5,16,0,id.pozv.act.a,5,Бесконечные промедления никак не позволяли делу сдвинуться с мёртвой точки.
# 8. Question (NULL if none)..
# 9. Answer.
# 10. Whether or not answer was correct (NULL if N/A).
# 11. Time taken to answer..
1637163709,b713c277341c573cf53ad6cbb75d0aa5,16,0,id.pozv.act.a,5,NULL,7,NULL,4106
# 8. Sentence (or sentence MD5).
1637163709,b713c277341c573cf53ad6cbb75d0aa5,24,0,Fg-1F.01,9,Если бы не дождь с градом%2C я бы пошла сегодня гулять в Петровский парк. 
# 8. Question (NULL if none)..
# 9. Answer.
# 10. Whether or not answer was correct (NULL if N/A).
# 11. Time taken to answer..
1637163709,b713c277341c573cf53ad6cbb75d0aa5,24,0,Fg-1F.01,9,NULL,7,NULL,4406
# 8. Sentence (or sentence MD5).
1637163709,b713c277341c573cf53ad6cbb75d0aa5,51,0,Fu-6F.02,22,Виктор опять не принес сочинение на урок литературы%2C и учитель снова начал за отчитывать его возмутительное неприлежание.
# 8. Question (NULL if none)..
# 9. Answer.
# 10. Whether or not answer was correct (NULL if N/A).
# 11. Time taken to answer..
1637163709,b713c277341c573cf53ad6cbb75d0aa5,51,0,Fu-6F.02,22,NULL,2,NULL,10433
# 8. Sentence (or sentence MD5).
1637163709,b713c277341c573cf53ad6cbb75d0aa5,15,0,id.mesh.pass.b,4,Родительский контроль должен мешать головам детей забиваться чушью%2C которую они могут увидеть в интернете.
# 8. Question (NULL if none)..
# 9. Answer.
# 10. Whether or not answer was correct (NULL if N/A).
# 11. Time taken to answer..
1637163709,b713c277341c573cf53ad6cbb75d0aa5,15,0,id.mesh.pass.b,4,NULL,5,NULL,7172
# 8. Sentence (or sentence MD5).
1637163709,b713c277341c573cf53ad6cbb75d0aa5,31,0,Fg-4F.02,12,Римма боится собак%2C да так%2C что может в обморок упасть%2C если Рекс на неё зарычит.
# 8. Question (NULL if none)..
# 9. Answer.
# 10. Whether or not answer was correct (NULL if N/A).
# 11. Time taken to answer..
1637163709,b713c277341c573cf53ad6cbb75d0aa5,31,0,Fg-4F.02,12,NULL,7,NULL,4063
# 8. Sentence (or sentence MD5).
1637163709,b713c277341c573cf53ad6cbb75d0aa5,52,0,Fu-7F.01,23,Со второго ряда уже было лектора плохо слышный%2C а до задних парт доходило еле-еле.
# 8. Question (NULL if none)..
# 9. Answer.
# 10. Whether or not answer was correct (NULL if N/A).
# 11. Time taken to answer..
1637163709,b713c277341c573cf53ad6cbb75d0aa5,52,0,Fu-7F.01,23,NULL,1,NULL,5917
# 8. Sentence (or sentence MD5).
1637163709,b713c277341c573cf53ad6cbb75d0aa5,20,0,id.pomo.act.a,7,Следователи были в полном замешательстве%2C но рассказ очевидца помог всему встать на свои места. 
# 8. Question (NULL if none)..
# 9. Answer.
# 10. Whether or not answer was correct (NULL if N/A).
# 11. Time taken to answer..
1637163709,b713c277341c573cf53ad6cbb75d0aa5,20,0,id.pomo.act.a,7,NULL,6,NULL,6121
# 8. Sentence (or sentence MD5).
1637163709,b713c277341c573cf53ad6cbb75d0aa5,28,0,Fg-3F.01,11,Мама надела сапоги%2C чёрное пальто%2C накинула на голову подаренный отцом шелковый платок и вышла во двор. 
# 8. Question (NULL if none)..
# 9. Answer.
# 10. Whether or not answer was correct (NULL if N/A).
# 11. Time taken to answer..
1637163709,b713c277341c573cf53ad6cbb75d0aa5,28,0,Fg-3F.01,11,NULL,7,NULL,4942
# 8. Sentence (or sentence MD5).
1637163709,b713c277341c573cf53ad6cbb75d0aa5,47,0,Fu-4F.02,20,Один наушник нашлись в углу прихожей%2C а другой – под тумбочке. 
# 8. Question (NULL if none)..
# 9. Answer.
# 10. Whether or not answer was correct (NULL if N/A).
# 11. Time taken to answer..
1637163709,b713c277341c573cf53ad6cbb75d0aa5,47,0,Fu-4F.02,20,NULL,1,NULL,5469
# 8. Sentence (or sentence MD5).
1637163709,b713c277341c573cf53ad6cbb75d0aa5,12,0,id.mesh.act.a,3,Мой день рождения проходил отлично%2C однако праздник не мешал кошкам скрести на душе. 
# 8. Question (NULL if none)..
# 9. Answer.
# 10. Whether or not answer was correct (NULL if N/A).
# 11. Time taken to answer..
1637163709,b713c277341c573cf53ad6cbb75d0aa5,12,0,id.mesh.act.a,3,NULL,6,NULL,5915
# 8. Sentence (or sentence MD5).
1637163709,b713c277341c573cf53ad6cbb75d0aa5,35,0,Fg-6F.02,14,Нет ничего красивее блестящих на солнце луж.
# 8. Question (NULL if none)..
# 9. Answer.
# 10. Whether or not answer was correct (NULL if N/A).
# 11. Time taken to answer..
1637163709,b713c277341c573cf53ad6cbb75d0aa5,35,0,Fg-6F.02,14,NULL,7,NULL,4481
# 8. Sentence (or sentence MD5).
1637163709,b713c277341c573cf53ad6cbb75d0aa5,55,0,Fu-8F.02,24,Как настоящая творческая личность%2C Никитка скоро украсил обои в прихожей при помощью своих новых фломастерами.
# 8. Question (NULL if none)..
# 9. Answer.
# 10. Whether or not answer was correct (NULL if N/A).
# 11. Time taken to answer..
1637163709,b713c277341c573cf53ad6cbb75d0aa5,55,0,Fu-8F.02,24,NULL,6,NULL,9147
# 8. Sentence (or sentence MD5).
1637163709,b713c277341c573cf53ad6cbb75d0aa5,23,0,id.pomo.pass.b,8,Дружелюбный настрой Костиных новых знакомых и бутылка хорошего полусухого вина помогли льду растопиться быстро и легко.
# 8. Question (NULL if none)..
# 9. Answer.
# 10. Whether or not answer was correct (NULL if N/A).
# 11. Time taken to answer..
1637163709,b713c277341c573cf53ad6cbb75d0aa5,23,0,id.pomo.pass.b,8,NULL,5,NULL,10144
# 8. Sentence (or sentence MD5).
1637163709,b713c277341c573cf53ad6cbb75d0aa5,32,0,Fg-5F.01,13,На поле рядом с моим домом уже давно ничего не выращивают. 
# 8. Question (NULL if none)..
# 9. Answer.
# 10. Whether or not answer was correct (NULL if N/A).
# 11. Time taken to answer..
1637163709,b713c277341c573cf53ad6cbb75d0aa5,32,0,Fg-5F.01,13,NULL,7,NULL,4347
# 8. Sentence (or sentence MD5).
1637163709,b713c277341c573cf53ad6cbb75d0aa5,40,0,Fu-1F.01,17,Анечка совсем не хотела есть суп%2C потому что терпеть не могло вареный луком. 
# 8. Question (NULL if none)..
# 9. Answer.
# 10. Whether or not answer was correct (NULL if N/A).
# 11. Time taken to answer..
1637163709,b713c277341c573cf53ad6cbb75d0aa5,40,0,Fu-1F.01,17,NULL,1,NULL,5864
# 8. Sentence (or sentence MD5).
1637163709,b713c277341c573cf53ad6cbb75d0aa5,19,0,id.pozv.pass.b,6,Школьная директриса Лариса Эдуардовна была сторонницей индивидуального подхода к ученикам и не позволяла ярлыкам вешаться без разбора. 
# 8. Question (NULL if none)..
# 9. Answer.
# 10. Whether or not answer was correct (NULL if N/A).
# 11. Time taken to answer..
1637163709,b713c277341c573cf53ad6cbb75d0aa5,19,0,id.pozv.pass.b,6,NULL,5,NULL,10463
# 8. Sentence (or sentence MD5).
1637163709,b713c277341c573cf53ad6cbb75d0aa5,36,0,Fg-7F.01,15,Квартира в пригороде Москвы дешевле%2C но ежедневно добираться оттуда на работу – большая трата времени. 
# 8. Question (NULL if none)..
# 9. Answer.
# 10. Whether or not answer was correct (NULL if N/A).
# 11. Time taken to answer..
1637163709,b713c277341c573cf53ad6cbb75d0aa5,36,0,Fg-7F.01,15,NULL,6,NULL,8428
# 8. Sentence (or sentence MD5).
1637163709,b713c277341c573cf53ad6cbb75d0aa5,48,0,Fu-5F.01,21,Ты правда научился читать всего в три лет?
# 8. Question (NULL if none)..
# 9. Answer.
# 10. Whether or not answer was correct (NULL if N/A).
# 11. Time taken to answer..
1637163709,b713c277341c573cf53ad6cbb75d0aa5,48,0,Fu-5F.01,21,NULL,3,NULL,4966
# 8. Sentence (or sentence MD5).
1637163709,b713c277341c573cf53ad6cbb75d0aa5,8,0,id.zast.act.a,1,Очередной провал заставил почву уйти из-под ног молодого предпринимателя – выхода из ситуации не было никакого. 
# 8. Question (NULL if none)..
# 9. Answer.
# 10. Whether or not answer was correct (NULL if N/A).
# 11. Time taken to answer..
1637163709,b713c277341c573cf53ad6cbb75d0aa5,8,0,id.zast.act.a,1,NULL,6,NULL,6893
# 8. Sentence (or sentence MD5).
1637163709,b713c277341c573cf53ad6cbb75d0aa5,39,0,Fg-8F.02,16,Каждый раз%2C когда я прохожу мимо памятника Ленину%2C мне кажется%2C что он шатается.
# 8. Question (NULL if none)..
# 9. Answer.
# 10. Whether or not answer was correct (NULL if N/A).
# 11. Time taken to answer..
1637163709,b713c277341c573cf53ad6cbb75d0aa5,39,0,Fg-8F.02,16,NULL,7,NULL,4122
# 8. Sentence (or sentence MD5).
1637163709,b713c277341c573cf53ad6cbb75d0aa5,43,0,Fu-2F.02,18,Если мой рассказ тебя не убедишь%2C поговори с Алисой – она отлично разбирается в людях. 
# 8. Question (NULL if none)..
# 9. Answer.
# 10. Whether or not answer was correct (NULL if N/A).
# 11. Time taken to answer..
1637163709,b713c277341c573cf53ad6cbb75d0aa5,43,0,Fu-2F.02,18,NULL,1,NULL,8995
# 8. Sentence (or sentence MD5).
1637163709,b713c277341c573cf53ad6cbb75d0aa5,11,0,id.zast.pass.b,2,Хватит учить Пашу писать стихи – заставляешь бумагу мараться почем зря.
# 8. Question (NULL if none)..
# 9. Answer.
# 10. Whether or not answer was correct (NULL if N/A).
# 11. Time taken to answer..
1637163709,b713c277341c573cf53ad6cbb75d0aa5,11,0,id.zast.pass.b,2,NULL,5,NULL,6605
# 8. Sentence (or sentence MD5).
1637163709,b713c277341c573cf53ad6cbb75d0aa5,27,0,Fg-2F.02,10,Сколько он ни пытался%2C не даётся ему сербский язык – то ли дело итальянский.
# 8. Question (NULL if none)..
# 9. Answer.
# 10. Whether or not answer was correct (NULL if N/A).
# 11. Time taken to answer..
1637163709,b713c277341c573cf53ad6cbb75d0aa5,27,0,Fg-2F.02,10,NULL,7,NULL,5610
# 8. Sentence (or sentence MD5).
1637163709,b713c277341c573cf53ad6cbb75d0aa5,44,0,Fu-3F.01,19,Дома холодные полы%2C поэтому бабушка настаивает%2C чтобы гости наденут тапочки. 
# 8. Question (NULL if none)..
# 9. Answer.
# 10. Whether or not answer was correct (NULL if N/A).
# 11. Time taken to answer..
1637163709,b713c277341c573cf53ad6cbb75d0aa5,44,0,Fu-3F.01,19,NULL,3,NULL,5202
# 8. Sentence (or sentence MD5).
1637163709,b713c277341c573cf53ad6cbb75d0aa5,56,0,hiddenCompletionCode,NULL,LIR2487628453
#
# Results on Wed, 17 Nov 2021 15:57:04 GMT
# USER AGENT: Mozilla/5.0 (iPhone; CPU iPhone OS 14_8 like Mac OS X) AppleWebKit/605.1.15 (KHTML, like Gecko) Version/14.1.2 Mobile/15E148 Safari/604.1
# Design number was non-random = 16
#
# Columns below this comment are as follows:
# 1. Results reception time.
# 2. MD5 hash of participant's IP address.
# 3. Controller name.
# 4. Order number of item.
# 5. Inner element number.
# 6. Label.
# 7. Latin Square Group.
# 8. Sentence (or sentence MD5).
1637164624,299d1b3bf9d7923f7c06ca0eb8920898,4,0,practice1,NULL,Андрей опоздал на поезд и очень расстроился.
# 8. Question (NULL if none)..
# 9. Answer.
# 10. Whether or not answer was correct (NULL if N/A).
# 11. Time taken to answer..
1637164624,299d1b3bf9d7923f7c06ca0eb8920898,4,0,practice1,NULL,NULL,7,NULL,4952
# 8. Sentence (or sentence MD5).
1637164624,299d1b3bf9d7923f7c06ca0eb8920898,6,0,practice2,NULL,Буйный заросли крапива выросла домом за.
# 8. Question (NULL if none)..
# 9. Answer.
# 10. Whether or not answer was correct (NULL if N/A).
# 11. Time taken to answer..
1637164624,299d1b3bf9d7923f7c06ca0eb8920898,6,0,practice2,NULL,NULL,1,NULL,1493
# 8. Sentence (or sentence MD5).
1637164624,299d1b3bf9d7923f7c06ca0eb8920898,20,0,id.pomo.act.a,7,Следователи были в полном замешательстве%2C но рассказ очевидца помог всему встать на свои места. 
# 8. Question (NULL if none)..
# 9. Answer.
# 10. Whether or not answer was correct (NULL if N/A).
# 11. Time taken to answer..
1637164624,299d1b3bf9d7923f7c06ca0eb8920898,20,0,id.pomo.act.a,7,NULL,6,NULL,5815
# 8. Sentence (or sentence MD5).
1637164624,299d1b3bf9d7923f7c06ca0eb8920898,44,0,Fu-3F.01,19,Дома холодные полы%2C поэтому бабушка настаивает%2C чтобы гости наденут тапочки. 
# 8. Question (NULL if none)..
# 9. Answer.
# 10. Whether or not answer was correct (NULL if N/A).
# 11. Time taken to answer..
1637164624,299d1b3bf9d7923f7c06ca0eb8920898,44,0,Fu-3F.01,19,NULL,1,NULL,3982
# 8. Sentence (or sentence MD5).
1637164624,299d1b3bf9d7923f7c06ca0eb8920898,27,0,Fg-2F.02,10,Сколько он ни пытался%2C не даётся ему сербский язык – то ли дело итальянский.
# 8. Question (NULL if none)..
# 9. Answer.
# 10. Whether or not answer was correct (NULL if N/A).
# 11. Time taken to answer..
1637164624,299d1b3bf9d7923f7c06ca0eb8920898,27,0,Fg-2F.02,10,NULL,6,NULL,5615
# 8. Sentence (or sentence MD5).
1637164624,299d1b3bf9d7923f7c06ca0eb8920898,15,0,id.mesh.pass.b,4,Родительский контроль должен мешать головам детей забиваться чушью%2C которую они могут увидеть в интернете.
# 8. Question (NULL if none)..
# 9. Answer.
# 10. Whether or not answer was correct (NULL if N/A).
# 11. Time taken to answer..
1637164624,299d1b3bf9d7923f7c06ca0eb8920898,15,0,id.mesh.pass.b,4,NULL,5,NULL,4975
# 8. Sentence (or sentence MD5).
1637164624,299d1b3bf9d7923f7c06ca0eb8920898,52,0,Fu-7F.01,23,Со второго ряда уже было лектора плохо слышный%2C а до задних парт доходило еле-еле.
# 8. Question (NULL if none)..
# 9. Answer.
# 10. Whether or not answer was correct (NULL if N/A).
# 11. Time taken to answer..
1637164624,299d1b3bf9d7923f7c06ca0eb8920898,52,0,Fu-7F.01,23,NULL,1,NULL,2175
# 8. Sentence (or sentence MD5).
1637164624,299d1b3bf9d7923f7c06ca0eb8920898,36,0,Fg-7F.01,15,Квартира в пригороде Москвы дешевле%2C но ежедневно добираться оттуда на работу – большая трата времени. 
# 8. Question (NULL if none)..
# 9. Answer.
# 10. Whether or not answer was correct (NULL if N/A).
# 11. Time taken to answer..
1637164624,299d1b3bf9d7923f7c06ca0eb8920898,36,0,Fg-7F.01,15,NULL,7,NULL,3810
# 8. Sentence (or sentence MD5).
1637164624,299d1b3bf9d7923f7c06ca0eb8920898,23,0,id.pomo.pass.b,8,Дружелюбный настрой Костиных новых знакомых и бутылка хорошего полусухого вина помогли льду растопиться быстро и легко.
# 8. Question (NULL if none)..
# 9. Answer.
# 10. Whether or not answer was correct (NULL if N/A).
# 11. Time taken to answer..
1637164624,299d1b3bf9d7923f7c06ca0eb8920898,23,0,id.pomo.pass.b,8,NULL,4,NULL,5549
# 8. Sentence (or sentence MD5).
1637164624,299d1b3bf9d7923f7c06ca0eb8920898,43,0,Fu-2F.02,18,Если мой рассказ тебя не убедишь%2C поговори с Алисой – она отлично разбирается в людях. 
# 8. Question (NULL if none)..
# 9. Answer.
# 10. Whether or not answer was correct (NULL if N/A).
# 11. Time taken to answer..
1637164624,299d1b3bf9d7923f7c06ca0eb8920898,43,0,Fu-2F.02,18,NULL,1,NULL,2808
# 8. Sentence (or sentence MD5).
1637164624,299d1b3bf9d7923f7c06ca0eb8920898,28,0,Fg-3F.01,11,Мама надела сапоги%2C чёрное пальто%2C накинула на голову подаренный отцом шелковый платок и вышла во двор. 
# 8. Question (NULL if none)..
# 9. Answer.
# 10. Whether or not answer was correct (NULL if N/A).
# 11. Time taken to answer..
1637164624,299d1b3bf9d7923f7c06ca0eb8920898,28,0,Fg-3F.01,11,NULL,7,NULL,6119
# 8. Sentence (or sentence MD5).
1637164624,299d1b3bf9d7923f7c06ca0eb8920898,16,0,id.pozv.act.a,5,Бесконечные промедления никак не позволяли делу сдвинуться с мёртвой точки.
# 8. Question (NULL if none)..
# 9. Answer.
# 10. Whether or not answer was correct (NULL if N/A).
# 11. Time taken to answer..
1637164624,299d1b3bf9d7923f7c06ca0eb8920898,16,0,id.pozv.act.a,5,NULL,6,NULL,4223
# 8. Sentence (or sentence MD5).
1637164624,299d1b3bf9d7923f7c06ca0eb8920898,55,0,Fu-8F.02,24,Как настоящая творческая личность%2C Никитка скоро украсил обои в прихожей при помощью своих новых фломастерами.
# 8. Question (NULL if none)..
# 9. Answer.
# 10. Whether or not answer was correct (NULL if N/A).
# 11. Time taken to answer..
1637164624,299d1b3bf9d7923f7c06ca0eb8920898,55,0,Fu-8F.02,24,NULL,1,NULL,4324
# 8. Sentence (or sentence MD5).
1637164624,299d1b3bf9d7923f7c06ca0eb8920898,39,0,Fg-8F.02,16,Каждый раз%2C когда я прохожу мимо памятника Ленину%2C мне кажется%2C что он шатается.
# 8. Question (NULL if none)..
# 9. Answer.
# 10. Whether or not answer was correct (NULL if N/A).
# 11. Time taken to answer..
1637164624,299d1b3bf9d7923f7c06ca0eb8920898,39,0,Fg-8F.02,16,NULL,7,NULL,4345
# 8. Sentence (or sentence MD5).
1637164624,299d1b3bf9d7923f7c06ca0eb8920898,8,0,id.zast.act.a,1,Очередной провал заставил почву уйти из-под ног молодого предпринимателя – выхода из ситуации не было никакого. 
# 8. Question (NULL if none)..
# 9. Answer.
# 10. Whether or not answer was correct (NULL if N/A).
# 11. Time taken to answer..
1637164624,299d1b3bf9d7923f7c06ca0eb8920898,8,0,id.zast.act.a,1,NULL,4,NULL,10685
# 8. Sentence (or sentence MD5).
1637164624,299d1b3bf9d7923f7c06ca0eb8920898,48,0,Fu-5F.01,21,Ты правда научился читать всего в три лет?
# 8. Question (NULL if none)..
# 9. Answer.
# 10. Whether or not answer was correct (NULL if N/A).
# 11. Time taken to answer..
1637164624,299d1b3bf9d7923f7c06ca0eb8920898,48,0,Fu-5F.01,21,NULL,1,NULL,2222
# 8. Sentence (or sentence MD5).
1637164624,299d1b3bf9d7923f7c06ca0eb8920898,32,0,Fg-5F.01,13,На поле рядом с моим домом уже давно ничего не выращивают. 
# 8. Question (NULL if none)..
# 9. Answer.
# 10. Whether or not answer was correct (NULL if N/A).
# 11. Time taken to answer..
1637164624,299d1b3bf9d7923f7c06ca0eb8920898,32,0,Fg-5F.01,13,NULL,6,NULL,3347
# 8. Sentence (or sentence MD5).
1637164624,299d1b3bf9d7923f7c06ca0eb8920898,19,0,id.pozv.pass.b,6,Школьная директриса Лариса Эдуардовна была сторонницей индивидуального подхода к ученикам и не позволяла ярлыкам вешаться без разбора. 
# 8. Question (NULL if none)..
# 9. Answer.
# 10. Whether or not answer was correct (NULL if N/A).
# 11. Time taken to answer..
1637164624,299d1b3bf9d7923f7c06ca0eb8920898,19,0,id.pozv.pass.b,6,NULL,3,NULL,5493
# 8. Sentence (or sentence MD5).
1637164624,299d1b3bf9d7923f7c06ca0eb8920898,51,0,Fu-6F.02,22,Виктор опять не принес сочинение на урок литературы%2C и учитель снова начал за отчитывать его возмутительное неприлежание.
# 8. Question (NULL if none)..
# 9. Answer.
# 10. Whether or not answer was correct (NULL if N/A).
# 11. Time taken to answer..
1637164624,299d1b3bf9d7923f7c06ca0eb8920898,51,0,Fu-6F.02,22,NULL,1,NULL,8250
# 8. Sentence (or sentence MD5).
1637164624,299d1b3bf9d7923f7c06ca0eb8920898,31,0,Fg-4F.02,12,Римма боится собак%2C да так%2C что может в обморок упасть%2C если Рекс на неё зарычит.
# 8. Question (NULL if none)..
# 9. Answer.
# 10. Whether or not answer was correct (NULL if N/A).
# 11. Time taken to answer..
1637164624,299d1b3bf9d7923f7c06ca0eb8920898,31,0,Fg-4F.02,12,NULL,7,NULL,3230
# 8. Sentence (or sentence MD5).
1637164624,299d1b3bf9d7923f7c06ca0eb8920898,12,0,id.mesh.act.a,3,Мой день рождения проходил отлично%2C однако праздник не мешал кошкам скрести на душе. 
# 8. Question (NULL if none)..
# 9. Answer.
# 10. Whether or not answer was correct (NULL if N/A).
# 11. Time taken to answer..
1637164624,299d1b3bf9d7923f7c06ca0eb8920898,12,0,id.mesh.act.a,3,NULL,5,NULL,4930
# 8. Sentence (or sentence MD5).
1637164624,299d1b3bf9d7923f7c06ca0eb8920898,47,0,Fu-4F.02,20,Один наушник нашлись в углу прихожей%2C а другой – под тумбочке. 
# 8. Question (NULL if none)..
# 9. Answer.
# 10. Whether or not answer was correct (NULL if N/A).
# 11. Time taken to answer..
1637164624,299d1b3bf9d7923f7c06ca0eb8920898,47,0,Fu-4F.02,20,NULL,1,NULL,2264
# 8. Sentence (or sentence MD5).
1637164624,299d1b3bf9d7923f7c06ca0eb8920898,24,0,Fg-1F.01,9,Если бы не дождь с градом%2C я бы пошла сегодня гулять в Петровский парк. 
# 8. Question (NULL if none)..
# 9. Answer.
# 10. Whether or not answer was correct (NULL if N/A).
# 11. Time taken to answer..
1637164624,299d1b3bf9d7923f7c06ca0eb8920898,24,0,Fg-1F.01,9,NULL,7,NULL,2273
# 8. Sentence (or sentence MD5).
1637164624,299d1b3bf9d7923f7c06ca0eb8920898,11,0,id.zast.pass.b,2,Хватит учить Пашу писать стихи – заставляешь бумагу мараться почем зря.
# 8. Question (NULL if none)..
# 9. Answer.
# 10. Whether or not answer was correct (NULL if N/A).
# 11. Time taken to answer..
1637164624,299d1b3bf9d7923f7c06ca0eb8920898,11,0,id.zast.pass.b,2,NULL,1,NULL,5698
# 8. Sentence (or sentence MD5).
1637164624,299d1b3bf9d7923f7c06ca0eb8920898,40,0,Fu-1F.01,17,Анечка совсем не хотела есть суп%2C потому что терпеть не могло вареный луком. 
# 8. Question (NULL if none)..
# 9. Answer.
# 10. Whether or not answer was correct (NULL if N/A).
# 11. Time taken to answer..
1637164624,299d1b3bf9d7923f7c06ca0eb8920898,40,0,Fu-1F.01,17,NULL,1,NULL,2784
# 8. Sentence (or sentence MD5).
1637164624,299d1b3bf9d7923f7c06ca0eb8920898,35,0,Fg-6F.02,14,Нет ничего красивее блестящих на солнце луж.
# 8. Question (NULL if none)..
# 9. Answer.
# 10. Whether or not answer was correct (NULL if N/A).
# 11. Time taken to answer..
1637164624,299d1b3bf9d7923f7c06ca0eb8920898,35,0,Fg-6F.02,14,NULL,7,NULL,2188
# 8. Sentence (or sentence MD5).
1637164624,299d1b3bf9d7923f7c06ca0eb8920898,56,0,hiddenCompletionCode,NULL,LIR4719667658
#
# Results on Wed, 17 Nov 2021 16:03:40 GMT
# USER AGENT: Mozilla/5.0 (Windows NT 10.0; Win64; x64) AppleWebKit/537.36 (KHTML, like Gecko) Chrome/95.0.4638.69 Safari/537.36
# Design number was non-random = 18
#
# Columns below this comment are as follows:
# 1. Results reception time.
# 2. MD5 hash of participant's IP address.
# 3. Controller name.
# 4. Order number of item.
# 5. Inner element number.
# 6. Label.
# 7. Latin Square Group.
# 8. Sentence (or sentence MD5).
1637165020,cbc488e29a9a2627d7ba7cf1fd12fc5a,4,0,practice1,NULL,Андрей опоздал на поезд и очень расстроился.
# 8. Question (NULL if none)..
# 9. Answer.
# 10. Whether or not answer was correct (NULL if N/A).
# 11. Time taken to answer..
1637165020,cbc488e29a9a2627d7ba7cf1fd12fc5a,4,0,practice1,NULL,NULL,7,NULL,8151
# 8. Sentence (or sentence MD5).
1637165020,cbc488e29a9a2627d7ba7cf1fd12fc5a,6,0,practice2,NULL,Буйный заросли крапива выросла домом за.
# 8. Question (NULL if none)..
# 9. Answer.
# 10. Whether or not answer was correct (NULL if N/A).
# 11. Time taken to answer..
1637165020,cbc488e29a9a2627d7ba7cf1fd12fc5a,6,0,practice2,NULL,NULL,1,NULL,4710
# 8. Sentence (or sentence MD5).
1637165020,cbc488e29a9a2627d7ba7cf1fd12fc5a,16,0,id.pozv.act.a,5,Бесконечные промедления никак не позволяли делу сдвинуться с мёртвой точки.
# 8. Question (NULL if none)..
# 9. Answer.
# 10. Whether or not answer was correct (NULL if N/A).
# 11. Time taken to answer..
1637165020,cbc488e29a9a2627d7ba7cf1fd12fc5a,16,0,id.pozv.act.a,5,NULL,7,NULL,8912
# 8. Sentence (or sentence MD5).
1637165020,cbc488e29a9a2627d7ba7cf1fd12fc5a,36,0,Fg-7F.01,15,Квартира в пригороде Москвы дешевле%2C но ежедневно добираться оттуда на работу – большая трата времени. 
# 8. Question (NULL if none)..
# 9. Answer.
# 10. Whether or not answer was correct (NULL if N/A).
# 11. Time taken to answer..
1637165020,cbc488e29a9a2627d7ba7cf1fd12fc5a,36,0,Fg-7F.01,15,NULL,7,NULL,12379
# 8. Sentence (or sentence MD5).
1637165020,cbc488e29a9a2627d7ba7cf1fd12fc5a,47,0,Fu-4F.02,20,Один наушник нашлись в углу прихожей%2C а другой – под тумбочке. 
# 8. Question (NULL if none)..
# 9. Answer.
# 10. Whether or not answer was correct (NULL if N/A).
# 11. Time taken to answer..
1637165020,cbc488e29a9a2627d7ba7cf1fd12fc5a,47,0,Fu-4F.02,20,NULL,1,NULL,7076
# 8. Sentence (or sentence MD5).
1637165020,cbc488e29a9a2627d7ba7cf1fd12fc5a,12,0,id.mesh.act.a,3,Мой день рождения проходил отлично%2C однако праздник не мешал кошкам скрести на душе. 
# 8. Question (NULL if none)..
# 9. Answer.
# 10. Whether or not answer was correct (NULL if N/A).
# 11. Time taken to answer..
1637165020,cbc488e29a9a2627d7ba7cf1fd12fc5a,12,0,id.mesh.act.a,3,NULL,3,NULL,16717
# 8. Sentence (or sentence MD5).
1637165020,cbc488e29a9a2627d7ba7cf1fd12fc5a,27,0,Fg-2F.02,10,Сколько он ни пытался%2C не даётся ему сербский язык – то ли дело итальянский.
# 8. Question (NULL if none)..
# 9. Answer.
# 10. Whether or not answer was correct (NULL if N/A).
# 11. Time taken to answer..
1637165020,cbc488e29a9a2627d7ba7cf1fd12fc5a,27,0,Fg-2F.02,10,NULL,7,NULL,6909
# 8. Sentence (or sentence MD5).
1637165020,cbc488e29a9a2627d7ba7cf1fd12fc5a,44,0,Fu-3F.01,19,Дома холодные полы%2C поэтому бабушка настаивает%2C чтобы гости наденут тапочки. 
# 8. Question (NULL if none)..
# 9. Answer.
# 10. Whether or not answer was correct (NULL if N/A).
# 11. Time taken to answer..
1637165020,cbc488e29a9a2627d7ba7cf1fd12fc5a,44,0,Fu-3F.01,19,NULL,1,NULL,10857
# 8. Sentence (or sentence MD5).
1637165020,cbc488e29a9a2627d7ba7cf1fd12fc5a,23,0,id.pomo.pass.b,8,Дружелюбный настрой Костиных новых знакомых и бутылка хорошего полусухого вина помогли льду растопиться быстро и легко.
# 8. Question (NULL if none)..
# 9. Answer.
# 10. Whether or not answer was correct (NULL if N/A).
# 11. Time taken to answer..
1637165020,cbc488e29a9a2627d7ba7cf1fd12fc5a,23,0,id.pomo.pass.b,8,NULL,2,NULL,11286
# 8. Sentence (or sentence MD5).
1637165020,cbc488e29a9a2627d7ba7cf1fd12fc5a,24,0,Fg-1F.01,9,Если бы не дождь с градом%2C я бы пошла сегодня гулять в Петровский парк. 
# 8. Question (NULL if none)..
# 9. Answer.
# 10. Whether or not answer was correct (NULL if N/A).
# 11. Time taken to answer..
1637165020,cbc488e29a9a2627d7ba7cf1fd12fc5a,24,0,Fg-1F.01,9,NULL,7,NULL,9378
# 8. Sentence (or sentence MD5).
1637165020,cbc488e29a9a2627d7ba7cf1fd12fc5a,55,0,Fu-8F.02,24,Как настоящая творческая личность%2C Никитка скоро украсил обои в прихожей при помощью своих новых фломастерами.
# 8. Question (NULL if none)..
# 9. Answer.
# 10. Whether or not answer was correct (NULL if N/A).
# 11. Time taken to answer..
1637165020,cbc488e29a9a2627d7ba7cf1fd12fc5a,55,0,Fu-8F.02,24,NULL,1,NULL,9228
# 8. Sentence (or sentence MD5).
1637165020,cbc488e29a9a2627d7ba7cf1fd12fc5a,11,0,id.zast.pass.b,2,Хватит учить Пашу писать стихи – заставляешь бумагу мараться почем зря.
# 8. Question (NULL if none)..
# 9. Answer.
# 10. Whether or not answer was correct (NULL if N/A).
# 11. Time taken to answer..
1637165020,cbc488e29a9a2627d7ba7cf1fd12fc5a,11,0,id.zast.pass.b,2,NULL,6,NULL,13245
# 8. Sentence (or sentence MD5).
1637165020,cbc488e29a9a2627d7ba7cf1fd12fc5a,31,0,Fg-4F.02,12,Римма боится собак%2C да так%2C что может в обморок упасть%2C если Рекс на неё зарычит.
# 8. Question (NULL if none)..
# 9. Answer.
# 10. Whether or not answer was correct (NULL if N/A).
# 11. Time taken to answer..
1637165020,cbc488e29a9a2627d7ba7cf1fd12fc5a,31,0,Fg-4F.02,12,NULL,7,NULL,5338
# 8. Sentence (or sentence MD5).
1637165020,cbc488e29a9a2627d7ba7cf1fd12fc5a,51,0,Fu-6F.02,22,Виктор опять не принес сочинение на урок литературы%2C и учитель снова начал за отчитывать его возмутительное неприлежание.
# 8. Question (NULL if none)..
# 9. Answer.
# 10. Whether or not answer was correct (NULL if N/A).
# 11. Time taken to answer..
1637165020,cbc488e29a9a2627d7ba7cf1fd12fc5a,51,0,Fu-6F.02,22,NULL,1,NULL,9649
# 8. Sentence (or sentence MD5).
1637165020,cbc488e29a9a2627d7ba7cf1fd12fc5a,19,0,id.pozv.pass.b,6,Школьная директриса Лариса Эдуардовна была сторонницей индивидуального подхода к ученикам и не позволяла ярлыкам вешаться без разбора. 
# 8. Question (NULL if none)..
# 9. Answer.
# 10. Whether or not answer was correct (NULL if N/A).
# 11. Time taken to answer..
1637165020,cbc488e29a9a2627d7ba7cf1fd12fc5a,19,0,id.pozv.pass.b,6,NULL,1,NULL,11082
# 8. Sentence (or sentence MD5).
1637165020,cbc488e29a9a2627d7ba7cf1fd12fc5a,32,0,Fg-5F.01,13,На поле рядом с моим домом уже давно ничего не выращивают. 
# 8. Question (NULL if none)..
# 9. Answer.
# 10. Whether or not answer was correct (NULL if N/A).
# 11. Time taken to answer..
1637165020,cbc488e29a9a2627d7ba7cf1fd12fc5a,32,0,Fg-5F.01,13,NULL,7,NULL,4773
# 8. Sentence (or sentence MD5).
1637165020,cbc488e29a9a2627d7ba7cf1fd12fc5a,43,0,Fu-2F.02,18,Если мой рассказ тебя не убедишь%2C поговори с Алисой – она отлично разбирается в людях. 
# 8. Question (NULL if none)..
# 9. Answer.
# 10. Whether or not answer was correct (NULL if N/A).
# 11. Time taken to answer..
1637165020,cbc488e29a9a2627d7ba7cf1fd12fc5a,43,0,Fu-2F.02,18,NULL,1,NULL,6407
# 8. Sentence (or sentence MD5).
1637165020,cbc488e29a9a2627d7ba7cf1fd12fc5a,20,0,id.pomo.act.a,7,Следователи были в полном замешательстве%2C но рассказ очевидца помог всему встать на свои места. 
# 8. Question (NULL if none)..
# 9. Answer.
# 10. Whether or not answer was correct (NULL if N/A).
# 11. Time taken to answer..
1637165020,cbc488e29a9a2627d7ba7cf1fd12fc5a,20,0,id.pomo.act.a,7,NULL,5,NULL,9203
# 8. Sentence (or sentence MD5).
1637165020,cbc488e29a9a2627d7ba7cf1fd12fc5a,28,0,Fg-3F.01,11,Мама надела сапоги%2C чёрное пальто%2C накинула на голову подаренный отцом шелковый платок и вышла во двор. 
# 8. Question (NULL if none)..
# 9. Answer.
# 10. Whether or not answer was correct (NULL if N/A).
# 11. Time taken to answer..
1637165020,cbc488e29a9a2627d7ba7cf1fd12fc5a,28,0,Fg-3F.01,11,NULL,7,NULL,8232
# 8. Sentence (or sentence MD5).
1637165020,cbc488e29a9a2627d7ba7cf1fd12fc5a,52,0,Fu-7F.01,23,Со второго ряда уже было лектора плохо слышный%2C а до задних парт доходило еле-еле.
# 8. Question (NULL if none)..
# 9. Answer.
# 10. Whether or not answer was correct (NULL if N/A).
# 11. Time taken to answer..
1637165020,cbc488e29a9a2627d7ba7cf1fd12fc5a,52,0,Fu-7F.01,23,NULL,1,NULL,9497
# 8. Sentence (or sentence MD5).
1637165020,cbc488e29a9a2627d7ba7cf1fd12fc5a,15,0,id.mesh.pass.b,4,Родительский контроль должен мешать головам детей забиваться чушью%2C которую они могут увидеть в интернете.
# 8. Question (NULL if none)..
# 9. Answer.
# 10. Whether or not answer was correct (NULL if N/A).
# 11. Time taken to answer..
1637165020,cbc488e29a9a2627d7ba7cf1fd12fc5a,15,0,id.mesh.pass.b,4,NULL,3,NULL,14033
# 8. Sentence (or sentence MD5).
1637165020,cbc488e29a9a2627d7ba7cf1fd12fc5a,35,0,Fg-6F.02,14,Нет ничего красивее блестящих на солнце луж.
# 8. Question (NULL if none)..
# 9. Answer.
# 10. Whether or not answer was correct (NULL if N/A).
# 11. Time taken to answer..
1637165020,cbc488e29a9a2627d7ba7cf1fd12fc5a,35,0,Fg-6F.02,14,NULL,7,NULL,4869
# 8. Sentence (or sentence MD5).
1637165020,cbc488e29a9a2627d7ba7cf1fd12fc5a,40,0,Fu-1F.01,17,Анечка совсем не хотела есть суп%2C потому что терпеть не могло вареный луком. 
# 8. Question (NULL if none)..
# 9. Answer.
# 10. Whether or not answer was correct (NULL if N/A).
# 11. Time taken to answer..
1637165020,cbc488e29a9a2627d7ba7cf1fd12fc5a,40,0,Fu-1F.01,17,NULL,1,NULL,32595
# 8. Sentence (or sentence MD5).
1637165020,cbc488e29a9a2627d7ba7cf1fd12fc5a,8,0,id.zast.act.a,1,Очередной провал заставил почву уйти из-под ног молодого предпринимателя – выхода из ситуации не было никакого. 
# 8. Question (NULL if none)..
# 9. Answer.
# 10. Whether or not answer was correct (NULL if N/A).
# 11. Time taken to answer..
1637165020,cbc488e29a9a2627d7ba7cf1fd12fc5a,8,0,id.zast.act.a,1,NULL,3,NULL,12122
# 8. Sentence (or sentence MD5).
1637165020,cbc488e29a9a2627d7ba7cf1fd12fc5a,39,0,Fg-8F.02,16,Каждый раз%2C когда я прохожу мимо памятника Ленину%2C мне кажется%2C что он шатается.
# 8. Question (NULL if none)..
# 9. Answer.
# 10. Whether or not answer was correct (NULL if N/A).
# 11. Time taken to answer..
1637165020,cbc488e29a9a2627d7ba7cf1fd12fc5a,39,0,Fg-8F.02,16,NULL,7,NULL,4358
# 8. Sentence (or sentence MD5).
1637165020,cbc488e29a9a2627d7ba7cf1fd12fc5a,48,0,Fu-5F.01,21,Ты правда научился читать всего в три лет?
# 8. Question (NULL if none)..
# 9. Answer.
# 10. Whether or not answer was correct (NULL if N/A).
# 11. Time taken to answer..
1637165020,cbc488e29a9a2627d7ba7cf1fd12fc5a,48,0,Fu-5F.01,21,NULL,1,NULL,6799
# 8. Sentence (or sentence MD5).
1637165020,cbc488e29a9a2627d7ba7cf1fd12fc5a,56,0,hiddenCompletionCode,NULL,LIR4785360011
#
# Results on Wed, 17 Nov 2021 16:05:04 GMT
# USER AGENT: Mozilla/5.0 (Windows NT 10.0; Win64; x64) AppleWebKit/537.36 (KHTML, like Gecko) Chrome/95.0.4638.69 Safari/537.36
# Design number was non-random = 19
#
# Columns below this comment are as follows:
# 1. Results reception time.
# 2. MD5 hash of participant's IP address.
# 3. Controller name.
# 4. Order number of item.
# 5. Inner element number.
# 6. Label.
# 7. Latin Square Group.
# 8. Sentence (or sentence MD5).
1637165104,28b0c3b6cde9d6ba065a807a4c01eea0,4,0,practice1,NULL,Андрей опоздал на поезд и очень расстроился.
# 8. Question (NULL if none)..
# 9. Answer.
# 10. Whether or not answer was correct (NULL if N/A).
# 11. Time taken to answer..
1637165104,28b0c3b6cde9d6ba065a807a4c01eea0,4,0,practice1,NULL,NULL,7,NULL,3887
# 8. Sentence (or sentence MD5).
1637165104,28b0c3b6cde9d6ba065a807a4c01eea0,6,0,practice2,NULL,Буйный заросли крапива выросла домом за.
# 8. Question (NULL if none)..
# 9. Answer.
# 10. Whether or not answer was correct (NULL if N/A).
# 11. Time taken to answer..
1637165104,28b0c3b6cde9d6ba065a807a4c01eea0,6,0,practice2,NULL,NULL,1,NULL,4727
# 8. Sentence (or sentence MD5).
1637165104,28b0c3b6cde9d6ba065a807a4c01eea0,21,0,id.pomo.act.b,7,Алёна была в ярости%2C когда узнала%2C где муж побывал той ночью%2C но искренние извинения и пышный букет пионов помогли гневу смениться на милость.
# 8. Question (NULL if none)..
# 9. Answer.
# 10. Whether or not answer was correct (NULL if N/A).
# 11. Time taken to answer..
1637165104,28b0c3b6cde9d6ba065a807a4c01eea0,21,0,id.pomo.act.b,7,NULL,7,NULL,9683
# 8. Sentence (or sentence MD5).
1637165104,28b0c3b6cde9d6ba065a807a4c01eea0,46,0,Fu-4F.01,20,Дедлайн стремительно приближался%2C а я успевает сделать примерно ничего. 
# 8. Question (NULL if none)..
# 9. Answer.
# 10. Whether or not answer was correct (NULL if N/A).
# 11. Time taken to answer..
1637165104,28b0c3b6cde9d6ba065a807a4c01eea0,46,0,Fu-4F.01,20,NULL,2,NULL,5296
# 8. Sentence (or sentence MD5).
1637165104,28b0c3b6cde9d6ba065a807a4c01eea0,37,0,Fg-7F.02,15,Новосибирск оказался вовсе не таким%2C каким Лиза его себе представляла.
# 8. Question (NULL if none)..
# 9. Answer.
# 10. Whether or not answer was correct (NULL if N/A).
# 11. Time taken to answer..
1637165104,28b0c3b6cde9d6ba065a807a4c01eea0,37,0,Fg-7F.02,15,NULL,7,NULL,19446
# 8. Sentence (or sentence MD5).
1637165104,28b0c3b6cde9d6ba065a807a4c01eea0,9,0,id.zast.act.b,1,Напряженное молчание заставляло атмосферу сгущаться сильнее и сильнее. 
# 8. Question (NULL if none)..
# 9. Answer.
# 10. Whether or not answer was correct (NULL if N/A).
# 11. Time taken to answer..
1637165104,28b0c3b6cde9d6ba065a807a4c01eea0,9,0,id.zast.act.b,1,NULL,7,NULL,43279
# 8. Sentence (or sentence MD5).
1637165104,28b0c3b6cde9d6ba065a807a4c01eea0,45,0,Fu-3F.02,19,Больше всего маленький Ваня боялся темноты%2C и поэтому света засыпал без никогда. 
# 8. Question (NULL if none)..
# 9. Answer.
# 10. Whether or not answer was correct (NULL if N/A).
# 11. Time taken to answer..
1637165104,28b0c3b6cde9d6ba065a807a4c01eea0,45,0,Fu-3F.02,19,NULL,1,NULL,6880
# 8. Sentence (or sentence MD5).
1637165104,28b0c3b6cde9d6ba065a807a4c01eea0,26,0,Fg-2F.01,10,Алёше уже не нужны костыли – его нога совсем зажила. 
# 8. Question (NULL if none)..
# 9. Answer.
# 10. Whether or not answer was correct (NULL if N/A).
# 11. Time taken to answer..
1637165104,28b0c3b6cde9d6ba065a807a4c01eea0,26,0,Fg-2F.01,10,NULL,7,NULL,5835
# 8. Sentence (or sentence MD5).
1637165104,28b0c3b6cde9d6ba065a807a4c01eea0,10,0,id.zast.pass.a,2,Приход в администрацию нового руководства заставил декорации смениться.
# 8. Question (NULL if none)..
# 9. Answer.
# 10. Whether or not answer was correct (NULL if N/A).
# 11. Time taken to answer..
1637165104,28b0c3b6cde9d6ba065a807a4c01eea0,10,0,id.zast.pass.a,2,NULL,4,NULL,43201
# 8. Sentence (or sentence MD5).
1637165104,28b0c3b6cde9d6ba065a807a4c01eea0,49,0,Fu-5F.02,21,Рыбу здесь запрещено ловил сетями и пугал бы взрывчаткой.
# 8. Question (NULL if none)..
# 9. Answer.
# 10. Whether or not answer was correct (NULL if N/A).
# 11. Time taken to answer..
1637165104,28b0c3b6cde9d6ba065a807a4c01eea0,49,0,Fu-5F.02,21,NULL,1,NULL,11213
# 8. Sentence (or sentence MD5).
1637165104,28b0c3b6cde9d6ba065a807a4c01eea0,29,0,Fg-3F.02,11,Курины уехали на дачу на две недели%2C и до них теперь не дозвонишься.
# 8. Question (NULL if none)..
# 9. Answer.
# 10. Whether or not answer was correct (NULL if N/A).
# 11. Time taken to answer..
1637165104,28b0c3b6cde9d6ba065a807a4c01eea0,29,0,Fg-3F.02,11,NULL,6,NULL,6679
# 8. Sentence (or sentence MD5).
1637165104,28b0c3b6cde9d6ba065a807a4c01eea0,14,0,id.mesh.pass.a,4,Хорошее воспитание не мешало грехам водиться за Аркашей. 
# 8. Question (NULL if none)..
# 9. Answer.
# 10. Whether or not answer was correct (NULL if N/A).
# 11. Time taken to answer..
1637165104,28b0c3b6cde9d6ba065a807a4c01eea0,14,0,id.mesh.pass.a,4,NULL,4,NULL,11989
# 8. Sentence (or sentence MD5).
1637165104,28b0c3b6cde9d6ba065a807a4c01eea0,50,0,Fu-6F.01,22,На стене висел акварельные этюды%2C исчерканные углевым карандашом для придания глубины%2C карта Израиля и круглыми часы. 
# 8. Question (NULL if none)..
# 9. Answer.
# 10. Whether or not answer was correct (NULL if N/A).
# 11. Time taken to answer..
1637165104,28b0c3b6cde9d6ba065a807a4c01eea0,50,0,Fu-6F.01,22,NULL,1,NULL,7502
# 8. Sentence (or sentence MD5).
1637165104,28b0c3b6cde9d6ba065a807a4c01eea0,38,0,Fg-8F.01,16,Папа купил лимонад и килограмм креветок – вечером будет маленькое застолье.
# 8. Question (NULL if none)..
# 9. Answer.
# 10. Whether or not answer was correct (NULL if N/A).
# 11. Time taken to answer..
1637165104,28b0c3b6cde9d6ba065a807a4c01eea0,38,0,Fg-8F.01,16,NULL,7,NULL,5822
# 8. Sentence (or sentence MD5).
1637165104,28b0c3b6cde9d6ba065a807a4c01eea0,13,0,id.mesh.act.b,3,Никакие утешения не мешали слезам литься в три ручья – потерялась Анина любимая плюшевая собачка.
# 8. Question (NULL if none)..
# 9. Answer.
# 10. Whether or not answer was correct (NULL if N/A).
# 11. Time taken to answer..
1637165104,28b0c3b6cde9d6ba065a807a4c01eea0,13,0,id.mesh.act.b,3,NULL,6,NULL,43237
# 8. Sentence (or sentence MD5).
1637165104,28b0c3b6cde9d6ba065a807a4c01eea0,41,0,Fu-1F.02,17,Все были взволнованы после ухода Петра Степановича%2C даже Лизе. 
# 8. Question (NULL if none)..
# 9. Answer.
# 10. Whether or not answer was correct (NULL if N/A).
# 11. Time taken to answer..
1637165104,28b0c3b6cde9d6ba065a807a4c01eea0,41,0,Fu-1F.02,17,NULL,1,NULL,7342
# 8. Sentence (or sentence MD5).
1637165104,28b0c3b6cde9d6ba065a807a4c01eea0,25,0,Fg-1F.02,9,Меня пригласили на выставку%2C посвященную русским супрематистам%2C но мне совсем не хотелось идти. 
# 8. Question (NULL if none)..
# 9. Answer.
# 10. Whether or not answer was correct (NULL if N/A).
# 11. Time taken to answer..
1637165104,28b0c3b6cde9d6ba065a807a4c01eea0,25,0,Fg-1F.02,9,NULL,7,NULL,6526
# 8. Sentence (or sentence MD5).
1637165104,28b0c3b6cde9d6ba065a807a4c01eea0,18,0,id.pozv.pass.a,6,Серёжка думал%2C поселить ли у себя в комнате домашнюю жабу%2C но внезапное появление отца позволило её судьбе решиться мгновенно – она была выдворена на улицу.
# 8. Question (NULL if none)..
# 9. Answer.
# 10. Whether or not answer was correct (NULL if N/A).
# 11. Time taken to answer..
1637165104,28b0c3b6cde9d6ba065a807a4c01eea0,18,0,id.pozv.pass.a,6,NULL,3,NULL,11494
# 8. Sentence (or sentence MD5).
1637165104,28b0c3b6cde9d6ba065a807a4c01eea0,42,0,Fu-2F.01,18,У меня никогда не было музыкальных способностей%2C но я отличалась склонностью рисованием. 
# 8. Question (NULL if none)..
# 9. Answer.
# 10. Whether or not answer was correct (NULL if N/A).
# 11. Time taken to answer..
1637165104,28b0c3b6cde9d6ba065a807a4c01eea0,42,0,Fu-2F.01,18,NULL,2,NULL,7077
# 8. Sentence (or sentence MD5).
1637165104,28b0c3b6cde9d6ba065a807a4c01eea0,30,0,Fg-4F.01,12,Химия так плохо давалась Насте%2C что пришлось нанять репетитора – студента 4 курса МГУ. 
# 8. Question (NULL if none)..
# 9. Answer.
# 10. Whether or not answer was correct (NULL if N/A).
# 11. Time taken to answer..
1637165104,28b0c3b6cde9d6ba065a807a4c01eea0,30,0,Fg-4F.01,12,NULL,7,NULL,6646
# 8. Sentence (or sentence MD5).
1637165104,28b0c3b6cde9d6ba065a807a4c01eea0,17,0,id.pozv.act.b,5,В команде проекта собрались отличные компетентные люди%2C но отсутствие чётких указаний от руководителя всё никак не позволяло льду тронуться.
# 8. Question (NULL if none)..
# 9. Answer.
# 10. Whether or not answer was correct (NULL if N/A).
# 11. Time taken to answer..
1637165104,28b0c3b6cde9d6ba065a807a4c01eea0,17,0,id.pozv.act.b,5,NULL,7,NULL,19125
# 8. Sentence (or sentence MD5).
1637165104,28b0c3b6cde9d6ba065a807a4c01eea0,54,0,Fu-8F.01,24,Нике явно не нравилось вечеринке%2C у неё болела голова и она поскорее хотела пойдёт домой.
# 8. Question (NULL if none)..
# 9. Answer.
# 10. Whether or not answer was correct (NULL if N/A).
# 11. Time taken to answer..
1637165104,28b0c3b6cde9d6ba065a807a4c01eea0,54,0,Fu-8F.01,24,NULL,1,NULL,8510
# 8. Sentence (or sentence MD5).
1637165104,28b0c3b6cde9d6ba065a807a4c01eea0,34,0,Fg-6F.01,14,Никто не заставляет Витю просыпаться в шесть утра%2C он сам поднимается и идет на пробежку. 
# 8. Question (NULL if none)..
# 9. Answer.
# 10. Whether or not answer was correct (NULL if N/A).
# 11. Time taken to answer..
1637165104,28b0c3b6cde9d6ba065a807a4c01eea0,34,0,Fg-6F.01,14,NULL,7,NULL,5072
# 8. Sentence (or sentence MD5).
1637165104,28b0c3b6cde9d6ba065a807a4c01eea0,22,0,id.pomo.pass.a,8,Новые запретительные меры помогли гайкам закрутиться ещё сильнее. 
# 8. Question (NULL if none)..
# 9. Answer.
# 10. Whether or not answer was correct (NULL if N/A).
# 11. Time taken to answer..
1637165104,28b0c3b6cde9d6ba065a807a4c01eea0,22,0,id.pomo.pass.a,8,NULL,7,NULL,7351
# 8. Sentence (or sentence MD5).
1637165104,28b0c3b6cde9d6ba065a807a4c01eea0,53,0,Fu-7F.02,23,Дойдя до вертолётной площадки%2C мы повернулись назад и увидели закат холодное осеннего солнце.
# 8. Question (NULL if none)..
# 9. Answer.
# 10. Whether or not answer was correct (NULL if N/A).
# 11. Time taken to answer..
1637165104,28b0c3b6cde9d6ba065a807a4c01eea0,53,0,Fu-7F.02,23,NULL,1,NULL,8974
# 8. Sentence (or sentence MD5).
1637165104,28b0c3b6cde9d6ba065a807a4c01eea0,33,0,Fg-5F.02,13,Девчонки столпились у окна%2C чтобы посмотреть на двойную радугу%2C но никак не могли её разглядеть.
# 8. Question (NULL if none)..
# 9. Answer.
# 10. Whether or not answer was correct (NULL if N/A).
# 11. Time taken to answer..
1637165104,28b0c3b6cde9d6ba065a807a4c01eea0,33,0,Fg-5F.02,13,NULL,7,NULL,8095
# 8. Sentence (or sentence MD5).
1637165104,28b0c3b6cde9d6ba065a807a4c01eea0,56,0,hiddenCompletionCode,NULL,LIR2957971134
#
# Results on Wed, 17 Nov 2021 16:08:22 GMT
# USER AGENT: Mozilla/5.0 (Windows NT 10.0; Win64; x64) AppleWebKit/537.36 (KHTML, like Gecko) Chrome/95.0.4638.69 Safari/537.36 Edg/95.0.1020.53
# Design number was non-random = 22
#
# Columns below this comment are as follows:
# 1. Results reception time.
# 2. MD5 hash of participant's IP address.
# 3. Controller name.
# 4. Order number of item.
# 5. Inner element number.
# 6. Label.
# 7. Latin Square Group.
# 8. Sentence (or sentence MD5).
1637165302,6988e1589031638a170d3fa9a4fc8906,4,0,practice1,NULL,Андрей опоздал на поезд и очень расстроился.
# 8. Question (NULL if none)..
# 9. Answer.
# 10. Whether or not answer was correct (NULL if N/A).
# 11. Time taken to answer..
1637165302,6988e1589031638a170d3fa9a4fc8906,4,0,practice1,NULL,NULL,7,NULL,3899
# 8. Sentence (or sentence MD5).
1637165302,6988e1589031638a170d3fa9a4fc8906,6,0,practice2,NULL,Буйный заросли крапива выросла домом за.
# 8. Question (NULL if none)..
# 9. Answer.
# 10. Whether or not answer was correct (NULL if N/A).
# 11. Time taken to answer..
1637165302,6988e1589031638a170d3fa9a4fc8906,6,0,practice2,NULL,NULL,1,NULL,12677
# 8. Sentence (or sentence MD5).
1637165302,6988e1589031638a170d3fa9a4fc8906,52,0,Fu-7F.01,23,Со второго ряда уже было лектора плохо слышный%2C а до задних парт доходило еле-еле.
# 8. Question (NULL if none)..
# 9. Answer.
# 10. Whether or not answer was correct (NULL if N/A).
# 11. Time taken to answer..
1637165302,6988e1589031638a170d3fa9a4fc8906,52,0,Fu-7F.01,23,NULL,2,NULL,5841
# 8. Sentence (or sentence MD5).
1637165302,6988e1589031638a170d3fa9a4fc8906,35,0,Fg-6F.02,14,Нет ничего красивее блестящих на солнце луж.
# 8. Question (NULL if none)..
# 9. Answer.
# 10. Whether or not answer was correct (NULL if N/A).
# 11. Time taken to answer..
1637165302,6988e1589031638a170d3fa9a4fc8906,35,0,Fg-6F.02,14,NULL,7,NULL,3264
# 8. Sentence (or sentence MD5).
1637165302,6988e1589031638a170d3fa9a4fc8906,8,0,id.zast.act.a,1,Очередной провал заставил почву уйти из-под ног молодого предпринимателя – выхода из ситуации не было никакого. 
# 8. Question (NULL if none)..
# 9. Answer.
# 10. Whether or not answer was correct (NULL if N/A).
# 11. Time taken to answer..
1637165302,6988e1589031638a170d3fa9a4fc8906,8,0,id.zast.act.a,1,NULL,7,NULL,5443
# 8. Sentence (or sentence MD5).
1637165302,6988e1589031638a170d3fa9a4fc8906,47,0,Fu-4F.02,20,Один наушник нашлись в углу прихожей%2C а другой – под тумбочке. 
# 8. Question (NULL if none)..
# 9. Answer.
# 10. Whether or not answer was correct (NULL if N/A).
# 11. Time taken to answer..
1637165302,6988e1589031638a170d3fa9a4fc8906,47,0,Fu-4F.02,20,NULL,2,NULL,4151
# 8. Sentence (or sentence MD5).
1637165302,6988e1589031638a170d3fa9a4fc8906,24,0,Fg-1F.01,9,Если бы не дождь с градом%2C я бы пошла сегодня гулять в Петровский парк. 
# 8. Question (NULL if none)..
# 9. Answer.
# 10. Whether or not answer was correct (NULL if N/A).
# 11. Time taken to answer..
1637165302,6988e1589031638a170d3fa9a4fc8906,24,0,Fg-1F.01,9,NULL,7,NULL,4922
# 8. Sentence (or sentence MD5).
1637165302,6988e1589031638a170d3fa9a4fc8906,19,0,id.pozv.pass.b,6,Школьная директриса Лариса Эдуардовна была сторонницей индивидуального подхода к ученикам и не позволяла ярлыкам вешаться без разбора. 
# 8. Question (NULL if none)..
# 9. Answer.
# 10. Whether or not answer was correct (NULL if N/A).
# 11. Time taken to answer..
1637165302,6988e1589031638a170d3fa9a4fc8906,19,0,id.pozv.pass.b,6,NULL,7,NULL,4965
# 8. Sentence (or sentence MD5).
1637165302,6988e1589031638a170d3fa9a4fc8906,40,0,Fu-1F.01,17,Анечка совсем не хотела есть суп%2C потому что терпеть не могло вареный луком. 
# 8. Question (NULL if none)..
# 9. Answer.
# 10. Whether or not answer was correct (NULL if N/A).
# 11. Time taken to answer..
1637165302,6988e1589031638a170d3fa9a4fc8906,40,0,Fu-1F.01,17,NULL,3,NULL,4990
# 8. Sentence (or sentence MD5).
1637165302,6988e1589031638a170d3fa9a4fc8906,32,0,Fg-5F.01,13,На поле рядом с моим домом уже давно ничего не выращивают. 
# 8. Question (NULL if none)..
# 9. Answer.
# 10. Whether or not answer was correct (NULL if N/A).
# 11. Time taken to answer..
1637165302,6988e1589031638a170d3fa9a4fc8906,32,0,Fg-5F.01,13,NULL,7,NULL,3983
# 8. Sentence (or sentence MD5).
1637165302,6988e1589031638a170d3fa9a4fc8906,23,0,id.pomo.pass.b,8,Дружелюбный настрой Костиных новых знакомых и бутылка хорошего полусухого вина помогли льду растопиться быстро и легко.
# 8. Question (NULL if none)..
# 9. Answer.
# 10. Whether or not answer was correct (NULL if N/A).
# 11. Time taken to answer..
1637165302,6988e1589031638a170d3fa9a4fc8906,23,0,id.pomo.pass.b,8,NULL,7,NULL,11417
# 8. Sentence (or sentence MD5).
1637165302,6988e1589031638a170d3fa9a4fc8906,51,0,Fu-6F.02,22,Виктор опять не принес сочинение на урок литературы%2C и учитель снова начал за отчитывать его возмутительное неприлежание.
# 8. Question (NULL if none)..
# 9. Answer.
# 10. Whether or not answer was correct (NULL if N/A).
# 11. Time taken to answer..
1637165302,6988e1589031638a170d3fa9a4fc8906,51,0,Fu-6F.02,22,NULL,6,NULL,5831
# 8. Sentence (or sentence MD5).
1637165302,6988e1589031638a170d3fa9a4fc8906,36,0,Fg-7F.01,15,Квартира в пригороде Москвы дешевле%2C но ежедневно добираться оттуда на работу – большая трата времени. 
# 8. Question (NULL if none)..
# 9. Answer.
# 10. Whether or not answer was correct (NULL if N/A).
# 11. Time taken to answer..
1637165302,6988e1589031638a170d3fa9a4fc8906,36,0,Fg-7F.01,15,NULL,7,NULL,10445
# 8. Sentence (or sentence MD5).
1637165302,6988e1589031638a170d3fa9a4fc8906,16,0,id.pozv.act.a,5,Бесконечные промедления никак не позволяли делу сдвинуться с мёртвой точки.
# 8. Question (NULL if none)..
# 9. Answer.
# 10. Whether or not answer was correct (NULL if N/A).
# 11. Time taken to answer..
1637165302,6988e1589031638a170d3fa9a4fc8906,16,0,id.pozv.act.a,5,NULL,7,NULL,5886
# 8. Sentence (or sentence MD5).
1637165302,6988e1589031638a170d3fa9a4fc8906,55,0,Fu-8F.02,24,Как настоящая творческая личность%2C Никитка скоро украсил обои в прихожей при помощью своих новых фломастерами.
# 8. Question (NULL if none)..
# 9. Answer.
# 10. Whether or not answer was correct (NULL if N/A).
# 11. Time taken to answer..
1637165302,6988e1589031638a170d3fa9a4fc8906,55,0,Fu-8F.02,24,NULL,4,NULL,7374
# 8. Sentence (or sentence MD5).
1637165302,6988e1589031638a170d3fa9a4fc8906,39,0,Fg-8F.02,16,Каждый раз%2C когда я прохожу мимо памятника Ленину%2C мне кажется%2C что он шатается.
# 8. Question (NULL if none)..
# 9. Answer.
# 10. Whether or not answer was correct (NULL if N/A).
# 11. Time taken to answer..
1637165302,6988e1589031638a170d3fa9a4fc8906,39,0,Fg-8F.02,16,NULL,7,NULL,5119
# 8. Sentence (or sentence MD5).
1637165302,6988e1589031638a170d3fa9a4fc8906,15,0,id.mesh.pass.b,4,Родительский контроль должен мешать головам детей забиваться чушью%2C которую они могут увидеть в интернете.
# 8. Question (NULL if none)..
# 9. Answer.
# 10. Whether or not answer was correct (NULL if N/A).
# 11. Time taken to answer..
1637165302,6988e1589031638a170d3fa9a4fc8906,15,0,id.mesh.pass.b,4,NULL,6,NULL,4621
# 8. Sentence (or sentence MD5).
1637165302,6988e1589031638a170d3fa9a4fc8906,48,0,Fu-5F.01,21,Ты правда научился читать всего в три лет?
# 8. Question (NULL if none)..
# 9. Answer.
# 10. Whether or not answer was correct (NULL if N/A).
# 11. Time taken to answer..
1637165302,6988e1589031638a170d3fa9a4fc8906,48,0,Fu-5F.01,21,NULL,4,NULL,6078
# 8. Sentence (or sentence MD5).
1637165302,6988e1589031638a170d3fa9a4fc8906,28,0,Fg-3F.01,11,Мама надела сапоги%2C чёрное пальто%2C накинула на голову подаренный отцом шелковый платок и вышла во двор. 
# 8. Question (NULL if none)..
# 9. Answer.
# 10. Whether or not answer was correct (NULL if N/A).
# 11. Time taken to answer..
1637165302,6988e1589031638a170d3fa9a4fc8906,28,0,Fg-3F.01,11,NULL,7,NULL,4759
# 8. Sentence (or sentence MD5).
1637165302,6988e1589031638a170d3fa9a4fc8906,20,0,id.pomo.act.a,7,Следователи были в полном замешательстве%2C но рассказ очевидца помог всему встать на свои места. 
# 8. Question (NULL if none)..
# 9. Answer.
# 10. Whether or not answer was correct (NULL if N/A).
# 11. Time taken to answer..
1637165302,6988e1589031638a170d3fa9a4fc8906,20,0,id.pomo.act.a,7,NULL,7,NULL,5274
# 8. Sentence (or sentence MD5).
1637165302,6988e1589031638a170d3fa9a4fc8906,43,0,Fu-2F.02,18,Если мой рассказ тебя не убедишь%2C поговори с Алисой – она отлично разбирается в людях. 
# 8. Question (NULL if none)..
# 9. Answer.
# 10. Whether or not answer was correct (NULL if N/A).
# 11. Time taken to answer..
1637165302,6988e1589031638a170d3fa9a4fc8906,43,0,Fu-2F.02,18,NULL,3,NULL,5669
# 8. Sentence (or sentence MD5).
1637165302,6988e1589031638a170d3fa9a4fc8906,27,0,Fg-2F.02,10,Сколько он ни пытался%2C не даётся ему сербский язык – то ли дело итальянский.
# 8. Question (NULL if none)..
# 9. Answer.
# 10. Whether or not answer was correct (NULL if N/A).
# 11. Time taken to answer..
1637165302,6988e1589031638a170d3fa9a4fc8906,27,0,Fg-2F.02,10,NULL,3,NULL,5168
# 8. Sentence (or sentence MD5).
1637165302,6988e1589031638a170d3fa9a4fc8906,12,0,id.mesh.act.a,3,Мой день рождения проходил отлично%2C однако праздник не мешал кошкам скрести на душе. 
# 8. Question (NULL if none)..
# 9. Answer.
# 10. Whether or not answer was correct (NULL if N/A).
# 11. Time taken to answer..
1637165302,6988e1589031638a170d3fa9a4fc8906,12,0,id.mesh.act.a,3,NULL,5,NULL,8261
# 8. Sentence (or sentence MD5).
1637165302,6988e1589031638a170d3fa9a4fc8906,44,0,Fu-3F.01,19,Дома холодные полы%2C поэтому бабушка настаивает%2C чтобы гости наденут тапочки. 
# 8. Question (NULL if none)..
# 9. Answer.
# 10. Whether or not answer was correct (NULL if N/A).
# 11. Time taken to answer..
1637165302,6988e1589031638a170d3fa9a4fc8906,44,0,Fu-3F.01,19,NULL,3,NULL,6840
# 8. Sentence (or sentence MD5).
1637165302,6988e1589031638a170d3fa9a4fc8906,31,0,Fg-4F.02,12,Римма боится собак%2C да так%2C что может в обморок упасть%2C если Рекс на неё зарычит.
# 8. Question (NULL if none)..
# 9. Answer.
# 10. Whether or not answer was correct (NULL if N/A).
# 11. Time taken to answer..
1637165302,6988e1589031638a170d3fa9a4fc8906,31,0,Fg-4F.02,12,NULL,7,NULL,5509
# 8. Sentence (or sentence MD5).
1637165302,6988e1589031638a170d3fa9a4fc8906,11,0,id.zast.pass.b,2,Хватит учить Пашу писать стихи – заставляешь бумагу мараться почем зря.
# 8. Question (NULL if none)..
# 9. Answer.
# 10. Whether or not answer was correct (NULL if N/A).
# 11. Time taken to answer..
1637165302,6988e1589031638a170d3fa9a4fc8906,11,0,id.zast.pass.b,2,NULL,3,NULL,5343
# 8. Sentence (or sentence MD5).
1637165302,6988e1589031638a170d3fa9a4fc8906,56,0,hiddenCompletionCode,NULL,LIR9702833269
#
# Results on Wed, 17 Nov 2021 16:09:43 GMT
# USER AGENT: Mozilla/5.0 (Windows NT 10.0; Win64; x64) AppleWebKit/537.36 (KHTML, like Gecko) Chrome/94.0.4606.85 YaBrowser/21.11.0.1996 Yowser/2.5 Safari/537.36
# Design number was non-random = 23
#
# Columns below this comment are as follows:
# 1. Results reception time.
# 2. MD5 hash of participant's IP address.
# 3. Controller name.
# 4. Order number of item.
# 5. Inner element number.
# 6. Label.
# 7. Latin Square Group.
# 8. Sentence (or sentence MD5).
1637165383,da5375575dc5b7cac2107bb676cdabf4,4,0,practice1,NULL,Андрей опоздал на поезд и очень расстроился.
# 8. Question (NULL if none)..
# 9. Answer.
# 10. Whether or not answer was correct (NULL if N/A).
# 11. Time taken to answer..
1637165383,da5375575dc5b7cac2107bb676cdabf4,4,0,practice1,NULL,NULL,7,NULL,3409
# 8. Sentence (or sentence MD5).
1637165383,da5375575dc5b7cac2107bb676cdabf4,6,0,practice2,NULL,Буйный заросли крапива выросла домом за.
# 8. Question (NULL if none)..
# 9. Answer.
# 10. Whether or not answer was correct (NULL if N/A).
# 11. Time taken to answer..
1637165383,da5375575dc5b7cac2107bb676cdabf4,6,0,practice2,NULL,NULL,1,NULL,3586
# 8. Sentence (or sentence MD5).
1637165383,da5375575dc5b7cac2107bb676cdabf4,34,0,Fg-6F.01,14,Никто не заставляет Витю просыпаться в шесть утра%2C он сам поднимается и идет на пробежку. 
# 8. Question (NULL if none)..
# 9. Answer.
# 10. Whether or not answer was correct (NULL if N/A).
# 11. Time taken to answer..
1637165383,da5375575dc5b7cac2107bb676cdabf4,34,0,Fg-6F.01,14,NULL,7,NULL,5446
# 8. Sentence (or sentence MD5).
1637165383,da5375575dc5b7cac2107bb676cdabf4,17,0,id.pozv.act.b,5,В команде проекта собрались отличные компетентные люди%2C но отсутствие чётких указаний от руководителя всё никак не позволяло льду тронуться.
# 8. Question (NULL if none)..
# 9. Answer.
# 10. Whether or not answer was correct (NULL if N/A).
# 11. Time taken to answer..
1637165383,da5375575dc5b7cac2107bb676cdabf4,17,0,id.pozv.act.b,5,NULL,7,NULL,6432
# 8. Sentence (or sentence MD5).
1637165383,da5375575dc5b7cac2107bb676cdabf4,49,0,Fu-5F.02,21,Рыбу здесь запрещено ловил сетями и пугал бы взрывчаткой.
# 8. Question (NULL if none)..
# 9. Answer.
# 10. Whether or not answer was correct (NULL if N/A).
# 11. Time taken to answer..
1637165383,da5375575dc5b7cac2107bb676cdabf4,49,0,Fu-5F.02,21,NULL,1,NULL,4262
# 8. Sentence (or sentence MD5).
1637165383,da5375575dc5b7cac2107bb676cdabf4,37,0,Fg-7F.02,15,Новосибирск оказался вовсе не таким%2C каким Лиза его себе представляла.
# 8. Question (NULL if none)..
# 9. Answer.
# 10. Whether or not answer was correct (NULL if N/A).
# 11. Time taken to answer..
1637165383,da5375575dc5b7cac2107bb676cdabf4,37,0,Fg-7F.02,15,NULL,7,NULL,3190
# 8. Sentence (or sentence MD5).
1637165383,da5375575dc5b7cac2107bb676cdabf4,9,0,id.zast.act.b,1,Напряженное молчание заставляло атмосферу сгущаться сильнее и сильнее. 
# 8. Question (NULL if none)..
# 9. Answer.
# 10. Whether or not answer was correct (NULL if N/A).
# 11. Time taken to answer..
1637165383,da5375575dc5b7cac2107bb676cdabf4,9,0,id.zast.act.b,1,NULL,7,NULL,3493
# 8. Sentence (or sentence MD5).
1637165383,da5375575dc5b7cac2107bb676cdabf4,53,0,Fu-7F.02,23,Дойдя до вертолётной площадки%2C мы повернулись назад и увидели закат холодное осеннего солнце.
# 8. Question (NULL if none)..
# 9. Answer.
# 10. Whether or not answer was correct (NULL if N/A).
# 11. Time taken to answer..
1637165383,da5375575dc5b7cac2107bb676cdabf4,53,0,Fu-7F.02,23,NULL,1,NULL,9932
# 8. Sentence (or sentence MD5).
1637165383,da5375575dc5b7cac2107bb676cdabf4,29,0,Fg-3F.02,11,Курины уехали на дачу на две недели%2C и до них теперь не дозвонишься.
# 8. Question (NULL if none)..
# 9. Answer.
